gesture_id,label,start_time,end_time,ax,ay,az,gx,gy,gz
0,IDLE,1768044764.474697,1768044764.5072641,-14960,5844,3324,-719,150,710
0,IDLE,1768044764.474697,1768044764.5072641,-14824,5916,3184,-565,98,779
0,IDLE,1768044764.474697,1768044764.5072641,-14652,5672,3136,-844,183,642
0,IDLE,1768044764.474697,1768044764.5072641,-14616,5456,3176,-744,56,412
0,IDLE,1768044764.474697,1768044764.5072641,-14556,5492,3076,-610,72,311
0,IDLE,1768044764.474697,1768044764.5072641,-14688,5436,3064,-504,118,334
0,IDLE,1768044764.474697,1768044764.5072641,-14652,5480,3028,-339,223,183
0,IDLE,1768044764.474697,1768044764.5072641,-14744,5588,2920,-327,116,73
0,IDLE,1768044764.474697,1768044764.5072641,-14676,5736,2772,-691,169,-107
0,IDLE,1768044764.474697,1768044764.5072641,-14592,5424,2804,-365,507,-65
0,IDLE,1768044764.474697,1768044764.5072641,-14876,5724,2636,-733,305,-483
0,IDLE,1768044764.474697,1768044764.5072641,-14976,5664,2996,-145,762,-367
0,IDLE,1768044764.474697,1768044764.5072641,-15256,5980,3456,-732,998,-578
0,IDLE,1768044764.474697,1768044764.5072641,-14956,6064,3192,-1666,-1072,-665
0,IDLE,1768044764.474697,1768044764.5072641,-15064,5704,3824,-264,117,249
0,IDLE,1768044764.474697,1768044764.5072641,-14556,5576,3472,-162,-32,317
0,IDLE,1768044764.474697,1768044764.5072641,-14264,5364,3280,-54,-83,375
0,IDLE,1768044764.474697,1768044764.5072641,-14172,5232,2912,-35,-70,19
0,IDLE,1768044764.474697,1768044764.5072641,-14072,5424,2856,307,101,-17
0,IDLE,1768044764.474697,1768044764.5072641,-14196,5680,2988,377,467,-48
0,IDLE,1768044764.474697,1768044764.5072641,-14452,5852,3008,363,724,-63
0,IDLE,1768044764.474697,1768044764.5072641,-15288,6120,2848,-593,523,-244
0,IDLE,1768044764.474697,1768044764.5072641,-15192,6244,3380,-930,808,-664
0,IDLE,1768044764.474697,1768044764.5072641,-15272,6224,3564,-1263,-52,-540
0,IDLE,1768044764.474697,1768044764.5072641,-15240,5848,3628,-288,155,-32
0,IDLE,1768044764.474697,1768044764.5072641,-15136,6052,3632,190,144,227
0,IDLE,1768044764.474697,1768044764.5072641,-14980,5980,3588,43,61,322
0,IDLE,1768044764.474697,1768044764.5072641,-14692,6028,3564,-224,-185,-4
0,IDLE,1768044764.474697,1768044764.5072641,-14920,6192,3588,-1046,-142,-122
0,IDLE,1768044764.474697,1768044764.5072641,-14964,5804,3512,-1053,-184,-3
0,IDLE,1768044764.474697,1768044764.5072641,-15072,5740,3676,-948,-263,-68
0,IDLE,1768044764.474697,1768044764.5072641,-15028,5700,3688,-629,-386,100
0,IDLE,1768044764.474697,1768044764.5072641,-14960,5620,3616,-107,-515,178
0,IDLE,1768044764.474697,1768044764.5072641,-14804,5604,3640,158,-447,255
0,IDLE,1768044764.474697,1768044764.5072641,-14824,5784,3696,-66,-450,171
0,IDLE,1768044764.474697,1768044764.5072641,-14696,5696,3596,-280,-570,104
0,IDLE,1768044764.474697,1768044764.5072641,-14800,5708,3404,-127,-897,21
0,IDLE,1768044764.474697,1768044764.5072641,-14584,5752,3480,58,-659,117
0,IDLE,1768044764.474697,1768044764.5072641,-14760,5936,3472,313,-457,165
0,IDLE,1768044764.474697,1768044764.5072641,-14768,6052,3580,587,-268,96
0,IDLE,1768044764.474697,1768044764.5072641,-14956,6228,3328,-361,-224,-296
0,IDLE,1768044764.474697,1768044764.5072641,-14920,6228,3716,-296,-168,-164
0,IDLE,1768044764.474697,1768044764.5072641,-15040,6276,3588,-916,-390,-154
0,IDLE,1768044764.474697,1768044764.5072641,-14628,5880,3576,-310,-482,317
0,IDLE,1768044764.474697,1768044764.5072641,-14284,5892,3428,7,-310,358
0,IDLE,1768044764.474697,1768044764.5072641,-14044,5896,3608,334,-210,474
0,IDLE,1768044764.474697,1768044764.5072641,-13924,6056,3540,62,-169,304
0,IDLE,1768044764.474697,1768044764.5072641,-13888,6100,3556,-419,-84,183
0,IDLE,1768044764.474697,1768044764.5072641,-13984,5968,3608,-669,-133,148
0,IDLE,1768044764.474697,1768044764.5072641,-13964,5700,3544,-349,-90,140
1,IDLE,1768044767.9303594,1768044767.958595,-14056,5712,3468,84,-77,72
1,IDLE,1768044767.9303594,1768044767.958595,-14048,5708,3516,260,-15,27
1,IDLE,1768044767.9303594,1768044767.958595,-13992,5800,3272,385,-11,-57
1,IDLE,1768044767.9303594,1768044767.958595,-14072,5992,3332,177,116,-286
1,IDLE,1768044767.9303594,1768044767.958595,-14232,6076,3368,-140,297,-375
1,IDLE,1768044767.9303594,1768044767.958595,-14252,5992,3424,-285,426,-243
1,IDLE,1768044767.9303594,1768044767.958595,-14448,6184,3664,-874,686,-413
1,IDLE,1768044767.9303594,1768044767.958595,-14548,5836,3900,-446,463,-113
1,IDLE,1768044767.9303594,1768044767.958595,-14428,5636,3896,66,266,139
1,IDLE,1768044767.9303594,1768044767.958595,-14468,5788,3844,7,380,271
1,IDLE,1768044767.9303594,1768044767.958595,-14408,5692,3792,243,378,396
1,IDLE,1768044767.9303594,1768044767.958595,-14392,5964,3752,16,201,117
1,IDLE,1768044767.9303594,1768044767.958595,-14952,6256,3672,-290,546,-33
1,IDLE,1768044767.9303594,1768044767.958595,-14184,6084,3608,-857,115,-239
1,IDLE,1768044767.9303594,1768044767.958595,-14224,6060,3644,-506,355,-9
1,IDLE,1768044767.9303594,1768044767.958595,-14596,6212,3808,-836,393,16
1,IDLE,1768044767.9303594,1768044767.958595,-14688,6204,3996,-1000,424,135
1,IDLE,1768044767.9303594,1768044767.958595,-14924,6116,4000,-1022,520,181
1,IDLE,1768044767.9303594,1768044767.958595,-14928,5924,4108,-896,372,321
1,IDLE,1768044767.9303594,1768044767.958595,-14884,5756,4060,-500,341,598
1,IDLE,1768044767.9303594,1768044767.958595,-14752,5616,3888,-292,161,634
1,IDLE,1768044767.9303594,1768044767.958595,-14632,5640,3724,-479,161,523
1,IDLE,1768044767.9303594,1768044767.958595,-14572,5560,3772,-850,188,320
1,IDLE,1768044767.9303594,1768044767.958595,-14504,5332,3824,-559,265,332
1,IDLE,1768044767.9303594,1768044767.958595,-14528,5568,3796,-524,292,330
1,IDLE,1768044767.9303594,1768044767.958595,-14212,5412,3824,-459,40,267
1,IDLE,1768044767.9303594,1768044767.958595,-14572,5532,3960,-101,289,226
1,IDLE,1768044767.9303594,1768044767.958595,-14708,5592,4016,-107,263,100
1,IDLE,1768044767.9303594,1768044767.958595,-14800,5688,4020,-419,95,95
1,IDLE,1768044767.9303594,1768044767.958595,-14756,5500,4060,48,-191,58
1,IDLE,1768044767.9303594,1768044767.958595,-14680,5652,3872,425,-383,58
1,IDLE,1768044767.9303594,1768044767.958595,-14600,5760,3752,296,-151,-4
1,IDLE,1768044767.9303594,1768044767.958595,-14464,5792,3760,110,-320,-59
1,IDLE,1768044767.9303594,1768044767.958595,-14420,5876,3592,86,-234,-54
1,IDLE,1768044767.9303594,1768044767.958595,-14424,5816,3572,70,-246,12
1,IDLE,1768044767.9303594,1768044767.958595,-14376,5748,3568,306,-232,25
1,IDLE,1768044767.9303594,1768044767.958595,-14416,5888,3532,248,-76,-43
1,IDLE,1768044767.9303594,1768044767.958595,-14908,5820,3596,293,296,-11
1,IDLE,1768044767.9303594,1768044767.958595,-14324,5932,3672,198,68,-6
1,IDLE,1768044767.9303594,1768044767.958595,-14404,5980,3720,130,289,-24
1,IDLE,1768044767.9303594,1768044767.958595,-14452,6060,3588,9,156,-83
1,IDLE,1768044767.9303594,1768044767.958595,-14520,6000,3784,-65,98,-138
1,IDLE,1768044767.9303594,1768044767.958595,-14576,6060,3752,-133,127,-145
1,IDLE,1768044767.9303594,1768044767.958595,-14532,6052,3740,-36,120,25
1,IDLE,1768044767.9303594,1768044767.958595,-14488,6112,3772,2,212,136
1,IDLE,1768044767.9303594,1768044767.958595,-14464,6220,3940,-164,291,139
1,IDLE,1768044767.9303594,1768044767.958595,-14456,5964,4036,-19,113,196
1,IDLE,1768044767.9303594,1768044767.958595,-14248,5984,4032,103,48,123
1,IDLE,1768044767.9303594,1768044767.958595,-14196,5844,4056,969,69,509
1,IDLE,1768044767.9303594,1768044767.958595,-14496,6108,4016,395,-169,266
2,IDLE,1768044768.1113458,1768044768.1492045,-14356,5916,3864,-14,-294,51
2,IDLE,1768044768.1113458,1768044768.1492045,-14320,5996,3732,-55,-236,-21
2,IDLE,1768044768.1113458,1768044768.1492045,-14160,5968,3616,469,-61,264
2,IDLE,1768044768.1113458,1768044768.1492045,-14200,6136,3692,578,221,368
2,IDLE,1768044768.1113458,1768044768.1492045,-14364,6220,3676,-289,29,130
2,IDLE,1768044768.1113458,1768044768.1492045,-14048,6148,3596,-112,261,54
2,IDLE,1768044768.1113458,1768044768.1492045,-14296,6204,3572,57,492,69
2,IDLE,1768044768.1113458,1768044768.1492045,-14552,6364,3652,-332,606,92
2,IDLE,1768044768.1113458,1768044768.1492045,-14500,6292,3660,-624,487,135
2,IDLE,1768044768.1113458,1768044768.1492045,-14312,6272,3544,-511,550,254
2,IDLE,1768044768.1113458,1768044768.1492045,-14288,6216,3792,-122,835,370
2,IDLE,1768044768.1113458,1768044768.1492045,-14432,6364,3908,-245,748,325
2,IDLE,1768044768.1113458,1768044768.1492045,-14404,6160,4096,-591,580,364
2,IDLE,1768044768.1113458,1768044768.1492045,-14448,5892,4020,-348,529,519
2,IDLE,1768044768.1113458,1768044768.1492045,-14352,6040,3916,-259,487,350
2,IDLE,1768044768.1113458,1768044768.1492045,-15360,6256,4064,-133,468,397
2,IDLE,1768044768.1113458,1768044768.1492045,-14388,6052,3928,-236,227,159
2,IDLE,1768044768.1113458,1768044768.1492045,-14452,6180,3912,-115,278,301
2,IDLE,1768044768.1113458,1768044768.1492045,-14556,6264,4032,-278,327,240
2,IDLE,1768044768.1113458,1768044768.1492045,-14516,6228,4068,-364,214,347
2,IDLE,1768044768.1113458,1768044768.1492045,-14528,6180,3924,-361,-118,390
2,IDLE,1768044768.1113458,1768044768.1492045,-14328,6024,3768,-155,-125,376
2,IDLE,1768044768.1113458,1768044768.1492045,-14428,6148,3792,-87,-23,348
2,IDLE,1768044768.1113458,1768044768.1492045,-14756,6316,3880,-157,107,222
2,IDLE,1768044768.1113458,1768044768.1492045,-15044,6476,4036,-271,-186,170
2,IDLE,1768044768.1113458,1768044768.1492045,-14896,6372,3952,-398,-462,256
2,IDLE,1768044768.1113458,1768044768.1492045,-14104,5964,4024,543,91,587
2,IDLE,1768044768.1113458,1768044768.1492045,-14124,6048,3640,293,-666,423
2,IDLE,1768044768.1113458,1768044768.1492045,-14028,6024,3376,391,-520,414
2,IDLE,1768044768.1113458,1768044768.1492045,-13880,6120,3428,165,-162,170
2,IDLE,1768044768.1113458,1768044768.1492045,-14124,6316,3448,-54,-79,80
2,IDLE,1768044768.1113458,1768044768.1492045,-14140,6360,3504,-461,35,-186
2,IDLE,1768044768.1113458,1768044768.1492045,-14208,6300,3552,-508,149,-240
2,IDLE,1768044768.1113458,1768044768.1492045,-14512,6580,3556,-144,170,-162
2,IDLE,1768044768.1113458,1768044768.1492045,-14620,6744,3596,-45,203,-51
2,IDLE,1768044768.1113458,1768044768.1492045,-14476,6684,3812,-489,325,-90
2,IDLE,1768044768.1113458,1768044768.1492045,-14516,6724,3888,-455,15,41
2,IDLE,1768044768.1113458,1768044768.1492045,-14312,6480,3628,-379,107,98
2,IDLE,1768044768.1113458,1768044768.1492045,-14224,6320,3636,108,199,237
2,IDLE,1768044768.1113458,1768044768.1492045,-14312,6384,3672,38,397,154
2,IDLE,1768044768.1113458,1768044768.1492045,-14448,6540,3788,-542,286,9
2,IDLE,1768044768.1113458,1768044768.1492045,-14588,6984,3908,-1213,456,-184
2,IDLE,1768044768.1113458,1768044768.1492045,-14384,5908,3468,-721,-4,-365
2,IDLE,1768044768.1113458,1768044768.1492045,-14128,6168,3516,-410,446,-192
2,IDLE,1768044768.1113458,1768044768.1492045,-14380,6032,3492,312,279,72
2,IDLE,1768044768.1113458,1768044768.1492045,-14164,6432,3952,-145,991,40
2,IDLE,1768044768.1113458,1768044768.1492045,-14684,6836,3928,-1379,228,-315
2,IDLE,1768044768.1113458,1768044768.1492045,-14448,5920,3956,-741,156,-400
2,IDLE,1768044768.1113458,1768044768.1492045,-14416,6368,3744,-201,279,-207
2,IDLE,1768044768.1113458,1768044768.1492045,-14532,6388,3868,-696,364,-183
3,IDLE,1768044768.334001,1768044768.366905,-14556,6252,3892,-732,-49,-284
3,IDLE,1768044768.334001,1768044768.366905,-14836,6224,3728,-522,-92,-256
3,IDLE,1768044768.334001,1768044768.366905,-14380,6404,3764,-137,124,-36
3,IDLE,1768044768.334001,1768044768.366905,-14672,6356,3856,-448,106,-124
3,IDLE,1768044768.334001,1768044768.366905,-14516,5944,3976,-438,-55,-32
3,IDLE,1768044768.334001,1768044768.366905,-14548,5684,4000,-110,-397,-179
3,IDLE,1768044768.334001,1768044768.366905,-14448,5956,3980,-49,-212,-108
3,IDLE,1768044768.334001,1768044768.366905,-14288,5788,3800,68,-194,-32
3,IDLE,1768044768.334001,1768044768.366905,-14588,6056,3760,394,-31,-124
3,IDLE,1768044768.334001,1768044768.366905,-14304,6128,3696,-91,-383,-498
3,IDLE,1768044768.334001,1768044768.366905,-14124,5904,3520,-224,-253,-518
3,IDLE,1768044768.334001,1768044768.366905,-14084,5932,3560,254,53,-232
3,IDLE,1768044768.334001,1768044768.366905,-14216,5976,3652,822,334,30
3,IDLE,1768044768.334001,1768044768.366905,-14248,6104,3700,648,408,-14
3,IDLE,1768044768.334001,1768044768.366905,-14096,6284,3828,47,563,-242
3,IDLE,1768044768.334001,1768044768.366905,-14200,6072,3688,-428,569,-291
3,IDLE,1768044768.334001,1768044768.366905,-14112,5956,3956,-343,784,-251
3,IDLE,1768044768.334001,1768044768.366905,-14300,6224,4048,-152,975,-173
3,IDLE,1768044768.334001,1768044768.366905,-14604,6384,4220,-872,739,-368
3,IDLE,1768044768.334001,1768044768.366905,-14804,6236,4212,-1260,-16,-436
3,IDLE,1768044768.334001,1768044768.366905,-14308,6244,4428,-1321,555,-523
3,IDLE,1768044768.334001,1768044768.366905,-14552,5880,4208,-313,313,77
3,IDLE,1768044768.334001,1768044768.366905,-14480,6016,4188,360,282,381
3,IDLE,1768044768.334001,1768044768.366905,-14500,6120,4032,289,231,289
3,IDLE,1768044768.334001,1768044768.366905,-14388,6284,4016,-283,264,65
3,IDLE,1768044768.334001,1768044768.366905,-14480,6224,3800,-537,234,13
3,IDLE,1768044768.334001,1768044768.366905,-14664,6200,3584,-579,186,64
3,IDLE,1768044768.334001,1768044768.366905,-14592,6104,3536,-404,42,233
3,IDLE,1768044768.334001,1768044768.366905,-14656,6132,3536,-22,163,402
3,IDLE,1768044768.334001,1768044768.366905,-14644,6024,3372,81,337,461
3,IDLE,1768044768.334001,1768044768.366905,-14432,6176,3308,-392,513,322
3,IDLE,1768044768.334001,1768044768.366905,-14388,6160,3480,-1196,622,122
3,IDLE,1768044768.334001,1768044768.366905,-14428,5760,3764,-1435,596,0
3,IDLE,1768044768.334001,1768044768.366905,-14540,5576,3940,-953,635,45
3,IDLE,1768044768.334001,1768044768.366905,-14732,5600,4036,-141,435,271
3,IDLE,1768044768.334001,1768044768.366905,-14832,5724,4060,249,287,294
3,IDLE,1768044768.334001,1768044768.366905,-14524,5972,3932,99,2,154
3,IDLE,1768044768.334001,1768044768.366905,-14324,5380,3780,-321,-518,-105
3,IDLE,1768044768.334001,1768044768.366905,-14336,6160,4104,96,927,-57
3,IDLE,1768044768.334001,1768044768.366905,-15052,6480,4296,-903,-831,-737
3,IDLE,1768044768.334001,1768044768.366905,-14672,5968,4416,-157,-398,-127
3,IDLE,1768044768.334001,1768044768.366905,-14540,6004,4276,139,-742,411
3,IDLE,1768044768.334001,1768044768.366905,-14720,6120,4372,1379,-657,614
3,IDLE,1768044768.334001,1768044768.366905,-14396,6044,4420,933,-608,394
3,IDLE,1768044768.334001,1768044768.366905,-14732,6124,4300,541,-1018,214
3,IDLE,1768044768.334001,1768044768.366905,-14356,6084,4508,880,-453,306
3,IDLE,1768044768.334001,1768044768.366905,-14388,6016,4124,1011,-826,514
3,IDLE,1768044768.334001,1768044768.366905,-14460,5976,3988,1105,-722,558
3,IDLE,1768044768.334001,1768044768.366905,-14656,6220,2548,354,-419,447
3,IDLE,1768044768.334001,1768044768.366905,-12364,8428,-4356,-5534,7089,3155
4,IDLE,1768044768.507781,1768044768.5268178,-13740,6268,-1752,-6255,10891,671
4,IDLE,1768044768.507781,1768044768.5268178,-15268,2996,3784,-4912,10006,-974
4,IDLE,1768044768.507781,1768044768.5268178,-15972,5324,6492,-509,4765,-1359
4,IDLE,1768044768.507781,1768044768.5268178,-16236,5836,5552,586,855,-1020
4,IDLE,1768044768.507781,1768044768.5268178,-15372,6616,3752,-1083,-279,-352
4,IDLE,1768044768.507781,1768044768.5268178,-14796,5856,3584,-2171,163,-237
4,IDLE,1768044768.507781,1768044768.5268178,-14568,5468,3616,-1376,526,-430
4,IDLE,1768044768.507781,1768044768.5268178,-14468,5848,3804,-529,277,-292
4,IDLE,1768044768.507781,1768044768.5268178,-14588,6124,3652,-540,31,-159
4,IDLE,1768044768.507781,1768044768.5268178,-14504,5952,3732,-746,-124,-244
4,IDLE,1768044768.507781,1768044768.5268178,-14484,5820,3816,-710,-180,-395
4,IDLE,1768044768.507781,1768044768.5268178,-14408,5780,3768,-598,-426,-461
4,IDLE,1768044768.507781,1768044768.5268178,-14088,5756,3676,-269,-627,-513
4,IDLE,1768044768.507781,1768044768.5268178,-13852,5916,3688,61,-646,-597
4,IDLE,1768044768.507781,1768044768.5268178,-13840,6100,3492,212,-613,-669
4,IDLE,1768044768.507781,1768044768.5268178,-13852,6132,3504,183,-491,-625
4,IDLE,1768044768.507781,1768044768.5268178,-14116,6360,3452,15,-351,-567
4,IDLE,1768044768.507781,1768044768.5268178,-14200,6264,3380,-87,-464,-447
4,IDLE,1768044768.507781,1768044768.5268178,-14276,6128,3220,91,-463,-289
4,IDLE,1768044768.507781,1768044768.5268178,-14464,6248,3068,251,-323,-318
4,IDLE,1768044768.507781,1768044768.5268178,-14796,6500,2920,-205,41,-466
4,IDLE,1768044768.507781,1768044768.5268178,-14976,6600,3056,-938,251,-604
4,IDLE,1768044768.507781,1768044768.5268178,-15116,6140,3228,-1161,136,-391
4,IDLE,1768044768.507781,1768044768.5268178,-15032,5776,3268,-531,-95,-86
4,IDLE,1768044768.507781,1768044768.5268178,-14784,5612,3104,23,-157,130
4,IDLE,1768044768.507781,1768044768.5268178,-14580,5428,3184,398,-219,237
4,IDLE,1768044768.507781,1768044768.5268178,-14472,5344,3048,741,-359,166
4,IDLE,1768044768.507781,1768044768.5268178,-14384,5312,2940,1120,-488,138
4,IDLE,1768044768.507781,1768044768.5268178,-14384,5340,2888,1423,-516,141
4,IDLE,1768044768.507781,1768044768.5268178,-14460,5596,2672,1638,-228,10
4,IDLE,1768044768.507781,1768044768.5268178,-14524,5816,2648,1662,85,12
4,IDLE,1768044768.507781,1768044768.5268178,-14736,6164,2704,1424,334,-21
4,IDLE,1768044768.507781,1768044768.5268178,-14684,6224,2852,1016,402,99
4,IDLE,1768044768.507781,1768044768.5268178,-14584,6124,2860,739,515,214
4,IDLE,1768044768.507781,1768044768.5268178,-14412,5904,2900,321,779,215
4,IDLE,1768044768.507781,1768044768.5268178,-14092,5904,3108,-494,971,-104
4,IDLE,1768044768.507781,1768044768.5268178,-13680,5340,3212,-337,683,140
4,IDLE,1768044768.507781,1768044768.5268178,-14756,5896,3576,-1186,850,-692
4,IDLE,1768044768.507781,1768044768.5268178,-15176,5976,3820,-1498,805,-830
4,IDLE,1768044768.507781,1768044768.5268178,-15028,5524,3804,-1112,377,-851
4,IDLE,1768044768.507781,1768044768.5268178,-14856,5424,3728,530,263,-24
4,IDLE,1768044768.507781,1768044768.5268178,-14984,5672,3688,1484,112,459
4,IDLE,1768044768.507781,1768044768.5268178,-14724,6288,3620,263,15,315
4,IDLE,1768044768.507781,1768044768.5268178,-14492,5992,3392,668,543,922
4,IDLE,1768044768.507781,1768044768.5268178,-14708,6092,3224,216,75,-163
4,IDLE,1768044768.507781,1768044768.5268178,-14576,6156,3228,-835,120,-298
4,IDLE,1768044768.507781,1768044768.5268178,-14680,5708,3160,-823,472,-377
4,IDLE,1768044768.507781,1768044768.5268178,-14784,5716,3136,-346,152,-203
4,IDLE,1768044768.507781,1768044768.5268178,-14900,5944,3144,124,194,55
4,IDLE,1768044768.507781,1768044768.5268178,-14836,6096,3052,166,200,198
5,IDLE,1768044768.6764877,1768044768.6999109,-14728,6136,3008,-229,241,-17
5,IDLE,1768044768.6764877,1768044768.6999109,-14784,6036,3024,-540,202,-127
5,IDLE,1768044768.6764877,1768044768.6999109,-14700,5904,3172,-448,144,-81
5,IDLE,1768044768.6764877,1768044768.6999109,-14760,5940,3052,-465,152,7
5,IDLE,1768044768.6764877,1768044768.6999109,-14572,5972,3100,-473,175,160
5,IDLE,1768044768.6764877,1768044768.6999109,-14552,5748,3140,-238,203,285
5,IDLE,1768044768.6764877,1768044768.6999109,-14616,5992,3180,-142,67,324
5,IDLE,1768044768.6764877,1768044768.6999109,-14552,5628,3104,195,-47,473
5,IDLE,1768044768.6764877,1768044768.6999109,-14568,5612,3024,108,67,316
5,IDLE,1768044768.6764877,1768044768.6999109,-14488,5676,3052,33,-13,332
5,IDLE,1768044768.6764877,1768044768.6999109,-14324,5560,3132,71,46,233
5,IDLE,1768044768.6764877,1768044768.6999109,-14616,5712,3060,234,-81,231
5,IDLE,1768044768.6764877,1768044768.6999109,-14628,5932,3176,347,-27,337
5,IDLE,1768044768.6764877,1768044768.6999109,-14712,6068,3108,490,-42,332
5,IDLE,1768044768.6764877,1768044768.6999109,-14648,6128,3096,358,-190,530
5,IDLE,1768044768.6764877,1768044768.6999109,-14352,5936,2784,535,-91,537
5,IDLE,1768044768.6764877,1768044768.6999109,-14232,6140,2696,615,-97,411
5,IDLE,1768044768.6764877,1768044768.6999109,-14220,6452,2548,165,67,244
5,IDLE,1768044768.6764877,1768044768.6999109,-14340,6436,2372,-198,149,325
5,IDLE,1768044768.6764877,1768044768.6999109,-14304,6524,2616,-449,555,265
5,IDLE,1768044768.6764877,1768044768.6999109,-14440,6596,2608,-979,542,248
5,IDLE,1768044768.6764877,1768044768.6999109,-14596,6656,2608,-1210,231,212
5,IDLE,1768044768.6764877,1768044768.6999109,-14352,6064,2436,655,390,623
5,IDLE,1768044768.6764877,1768044768.6999109,-14096,6644,2568,823,654,709
5,IDLE,1768044768.6764877,1768044768.6999109,-14244,6840,2416,51,783,717
5,IDLE,1768044768.6764877,1768044768.6999109,-14252,6676,2504,-726,832,487
5,IDLE,1768044768.6764877,1768044768.6999109,-14580,6736,2484,-1142,919,273
5,IDLE,1768044768.6764877,1768044768.6999109,-14692,6744,2576,-1183,901,305
5,IDLE,1768044768.6764877,1768044768.6999109,-14896,6584,2560,-883,908,483
5,IDLE,1768044768.6764877,1768044768.6999109,-15136,6576,2692,-728,1041,530
5,IDLE,1768044768.6764877,1768044768.6999109,-15340,6596,2684,-1021,1031,375
5,IDLE,1768044768.6764877,1768044768.6999109,-15420,6628,2804,-1376,834,284
5,IDLE,1768044768.6764877,1768044768.6999109,-15400,6304,2880,-1720,893,96
5,IDLE,1768044768.6764877,1768044768.6999109,-15340,5988,2984,-1772,688,161
5,IDLE,1768044768.6764877,1768044768.6999109,-15272,5636,2760,-1340,521,235
5,IDLE,1768044768.6764877,1768044768.6999109,-14924,5684,2964,-1303,485,219
5,IDLE,1768044768.6764877,1768044768.6999109,-14612,5656,3052,-1448,371,164
5,IDLE,1768044768.6764877,1768044768.6999109,-14512,5288,3152,-1389,333,140
5,IDLE,1768044768.6764877,1768044768.6999109,-14332,5140,3264,-857,150,158
5,IDLE,1768044768.6764877,1768044768.6999109,-14368,5072,3288,-397,-80,131
5,IDLE,1768044768.6764877,1768044768.6999109,-14264,5052,3228,108,-238,127
5,IDLE,1768044768.6764877,1768044768.6999109,-14204,5188,3088,806,-469,64
5,IDLE,1768044768.6764877,1768044768.6999109,-14288,5652,2844,1026,-396,-41
5,IDLE,1768044768.6764877,1768044768.6999109,-14316,6044,2760,605,-153,-269
5,IDLE,1768044768.6764877,1768044768.6999109,-14500,6060,2720,859,-3,-105
5,IDLE,1768044768.6764877,1768044768.6999109,-14456,6208,2632,827,73,13
5,IDLE,1768044768.6764877,1768044768.6999109,-14420,6348,2624,593,270,74
5,IDLE,1768044768.6764877,1768044768.6999109,-14296,6476,2832,-349,777,-109
5,IDLE,1768044768.6764877,1768044768.6999109,-14124,6168,3100,-1084,360,-342
5,IDLE,1768044768.6764877,1768044768.6999109,-14048,5892,2976,-577,688,-278
6,IDLE,1768044768.841605,1768044768.8668642,-14072,5960,3000,172,663,-44
6,IDLE,1768044768.841605,1768044768.8668642,-14328,6364,2960,261,780,49
6,IDLE,1768044768.841605,1768044768.8668642,-14476,6556,3016,-156,822,-146
6,IDLE,1768044768.841605,1768044768.8668642,-14648,6596,2760,-714,858,-454
6,IDLE,1768044768.841605,1768044768.8668642,-14708,6856,2924,-1047,669,-459
6,IDLE,1768044768.841605,1768044768.8668642,-14808,6788,2840,-839,845,-269
6,IDLE,1768044768.841605,1768044768.8668642,-14932,6920,2852,-979,796,-241
6,IDLE,1768044768.841605,1768044768.8668642,-14900,6752,2976,-1160,713,-125
6,IDLE,1768044768.841605,1768044768.8668642,-14896,6940,3000,-2030,837,-187
6,IDLE,1768044768.841605,1768044768.8668642,-14548,6696,2888,-2244,240,-261
6,IDLE,1768044768.841605,1768044768.8668642,-14688,6176,2992,-834,268,145
6,IDLE,1768044768.841605,1768044768.8668642,-14644,6512,2784,-235,-3,387
6,IDLE,1768044768.841605,1768044768.8668642,-14652,6540,2712,-476,363,381
6,IDLE,1768044768.841605,1768044768.8668642,-14676,6552,2712,-1136,393,197
6,IDLE,1768044768.841605,1768044768.8668642,-14608,6388,2852,-1659,363,-74
6,IDLE,1768044768.841605,1768044768.8668642,-14568,6428,2836,-1800,149,-115
6,IDLE,1768044768.841605,1768044768.8668642,-14492,6168,2728,-1404,141,59
6,IDLE,1768044768.841605,1768044768.8668642,-14468,6188,2836,-756,153,311
6,IDLE,1768044768.841605,1768044768.8668642,-14520,6296,2836,-503,95,438
6,IDLE,1768044768.841605,1768044768.8668642,-14616,6188,2824,-496,43,470
6,IDLE,1768044768.841605,1768044768.8668642,-14556,6196,2776,-517,-38,370
6,IDLE,1768044768.841605,1768044768.8668642,-14564,6232,2700,-548,-64,318
6,IDLE,1768044768.841605,1768044768.8668642,-14552,6240,2644,-471,-117,352
6,IDLE,1768044768.841605,1768044768.8668642,-14452,6260,2648,-271,-58,505
6,IDLE,1768044768.841605,1768044768.8668642,-14356,6348,2580,-185,-11,565
6,IDLE,1768044768.841605,1768044768.8668642,-14224,6160,2532,-288,30,553
6,IDLE,1768044768.841605,1768044768.8668642,-14000,5948,2348,-224,158,528
6,IDLE,1768044768.841605,1768044768.8668642,-14076,6016,2224,-100,447,439
6,IDLE,1768044768.841605,1768044768.8668642,-14388,6152,2244,-141,704,282
6,IDLE,1768044768.841605,1768044768.8668642,-14492,6344,2444,-443,762,26
6,IDLE,1768044768.841605,1768044768.8668642,-14732,6432,2436,-543,802,-98
6,IDLE,1768044768.841605,1768044768.8668642,-14708,6412,2576,-477,859,25
6,IDLE,1768044768.841605,1768044768.8668642,-14692,6440,2552,-376,1108,93
6,IDLE,1768044768.841605,1768044768.8668642,-14716,6640,2664,-570,1249,-60
6,IDLE,1768044768.841605,1768044768.8668642,-14824,6776,2644,-1174,1332,-277
6,IDLE,1768044768.841605,1768044768.8668642,-14912,6716,2776,-1742,1388,-366
6,IDLE,1768044768.841605,1768044768.8668642,-15132,6644,2764,-1911,1440,-397
6,IDLE,1768044768.841605,1768044768.8668642,-15332,6456,2908,-2075,1420,-351
6,IDLE,1768044768.841605,1768044768.8668642,-15324,6192,3016,-2228,1194,-319
6,IDLE,1768044768.841605,1768044768.8668642,-15296,5920,3020,-1980,1048,-312
6,IDLE,1768044768.841605,1768044768.8668642,-15120,5740,3040,-1626,837,-312
6,IDLE,1768044768.841605,1768044768.8668642,-15016,5792,2904,-1351,579,-310
6,IDLE,1768044768.841605,1768044768.8668642,-14808,5664,2908,-1185,296,-327
6,IDLE,1768044768.841605,1768044768.8668642,-14720,5572,2700,-953,157,-375
6,IDLE,1768044768.841605,1768044768.8668642,-14808,5552,2632,-809,157,-422
6,IDLE,1768044768.841605,1768044768.8668642,-14900,5560,2664,-667,-3,-569
6,IDLE,1768044768.841605,1768044768.8668642,-15056,5648,2680,-526,-284,-577
6,IDLE,1768044768.841605,1768044768.8668642,-15128,5604,2676,-315,-516,-551
6,IDLE,1768044768.841605,1768044768.8668642,-15012,5660,2484,-74,-622,-400
6,IDLE,1768044768.841605,1768044768.8668642,-14848,5544,2492,175,-712,-268
7,IDLE,1768044768.9437182,1768044768.964773,-14828,5600,2340,399,-684,-254
7,IDLE,1768044768.9437182,1768044768.964773,-14708,5796,2300,159,-620,-361
7,IDLE,1768044768.9437182,1768044768.964773,-14572,5756,2336,-111,-601,-382
7,IDLE,1768044768.9437182,1768044768.964773,-14308,5784,2432,-31,-456,-276
7,IDLE,1768044768.9437182,1768044768.964773,-14248,5924,2528,-128,-138,-357
7,IDLE,1768044768.9437182,1768044768.964773,-14460,6096,2772,-590,51,-468
7,IDLE,1768044768.9437182,1768044768.964773,-14472,6244,2988,-937,111,-491
7,IDLE,1768044768.9437182,1768044768.964773,-14464,6256,2928,-1177,229,-402
7,IDLE,1768044768.9437182,1768044768.964773,-14448,6132,3168,-1087,296,-130
7,IDLE,1768044768.9437182,1768044768.964773,-14368,5892,3196,-894,283,-29
7,IDLE,1768044768.9437182,1768044768.964773,-14420,5824,3216,-837,254,-50
7,IDLE,1768044768.9437182,1768044768.964773,-14536,5800,3172,-891,239,-193
7,IDLE,1768044768.9437182,1768044768.964773,-14872,5928,3344,-845,293,-240
7,IDLE,1768044768.9437182,1768044768.964773,-15036,5856,3272,-718,105,-117
7,IDLE,1768044768.9437182,1768044768.964773,-15168,5708,3224,-204,-62,-16
7,IDLE,1768044768.9437182,1768044768.964773,-15176,5856,3164,69,-123,164
7,IDLE,1768044768.9437182,1768044768.964773,-15116,5772,3028,-43,-231,299
7,IDLE,1768044768.9437182,1768044768.964773,-14916,5440,2852,-6,-321,390
7,IDLE,1768044768.9437182,1768044768.964773,-14668,5388,2732,19,-116,280
7,IDLE,1768044768.9437182,1768044768.964773,-14664,5312,2824,-322,59,107
7,IDLE,1768044768.9437182,1768044768.964773,-14700,5248,3012,-476,137,-43
7,IDLE,1768044768.9437182,1768044768.964773,-14712,5316,2984,-507,101,-69
7,IDLE,1768044768.9437182,1768044768.964773,-14656,5348,3112,-530,91,-50
7,IDLE,1768044768.9437182,1768044768.964773,-14684,5304,3120,-466,82,-41
7,IDLE,1768044768.9437182,1768044768.964773,-14808,5316,3160,-448,87,-99
7,IDLE,1768044768.9437182,1768044768.964773,-14868,5380,3240,-520,4,-185
7,IDLE,1768044768.9437182,1768044768.964773,-14900,5392,3360,-405,-114,-95
7,IDLE,1768044768.9437182,1768044768.964773,-14824,5284,3396,-154,-191,94
7,IDLE,1768044768.9437182,1768044768.964773,-14868,5304,3444,181,-270,158
7,IDLE,1768044768.9437182,1768044768.964773,-14720,5492,3272,44,-263,94
7,IDLE,1768044768.9437182,1768044768.964773,-14700,5468,3248,-156,-232,52
7,IDLE,1768044768.9437182,1768044768.964773,-14768,5444,3376,-183,-218,77
7,IDLE,1768044768.9437182,1768044768.964773,-14808,5412,3304,-246,-200,83
7,IDLE,1768044768.9437182,1768044768.964773,-14796,5404,3156,-275,-85,76
7,IDLE,1768044768.9437182,1768044768.964773,-14764,5436,3308,-415,-41,10
7,IDLE,1768044768.9437182,1768044768.964773,-14712,5328,3316,-447,-122,12
7,IDLE,1768044768.9437182,1768044768.964773,-14676,5348,3360,-460,-146,-11
7,IDLE,1768044768.9437182,1768044768.964773,-14608,5424,3344,-412,-62,-28
7,IDLE,1768044768.9437182,1768044768.964773,-14660,5524,3356,-468,-14,-116
7,IDLE,1768044768.9437182,1768044768.964773,-14740,5668,3428,-610,-51,-132
7,IDLE,1768044768.9437182,1768044768.964773,-14672,5636,3356,-643,-15,-33
7,IDLE,1768044768.9437182,1768044768.964773,-14596,5584,3368,-453,-24,64
7,IDLE,1768044768.9437182,1768044768.964773,-14552,5700,3332,-363,-46,108
7,IDLE,1768044768.9437182,1768044768.964773,-14552,5744,3228,-490,85,91
7,IDLE,1768044768.9437182,1768044768.964773,-14488,5752,3284,-603,66,97
7,IDLE,1768044768.9437182,1768044768.964773,-14472,5732,3324,-543,135,177
7,IDLE,1768044768.9437182,1768044768.964773,-14452,5728,3340,-390,171,255
7,IDLE,1768044768.9437182,1768044768.964773,-14412,5904,3360,-584,266,232
7,IDLE,1768044768.9437182,1768044768.964773,-14348,5780,3300,-710,393,217
7,IDLE,1768044768.9437182,1768044768.964773,-14384,5772,3356,-684,558,219
8,IDLE,1768044769.042629,1768044769.068652,-14532,5856,3460,-653,622,160
8,IDLE,1768044769.042629,1768044769.068652,-14024,5840,3428,-1081,551,51
8,IDLE,1768044769.042629,1768044769.068652,-14624,5972,3464,-1140,720,120
8,IDLE,1768044769.042629,1768044769.068652,-14764,5804,3480,-1144,773,149
8,IDLE,1768044769.042629,1768044769.068652,-14760,5424,3468,-956,837,266
8,IDLE,1768044769.042629,1768044769.068652,-14764,5200,3516,-623,775,292
8,IDLE,1768044769.042629,1768044769.068652,-14608,4996,3536,-510,738,245
8,IDLE,1768044769.042629,1768044769.068652,-14752,4732,3656,-498,776,112
8,IDLE,1768044769.042629,1768044769.068652,-14808,4268,3996,-163,768,52
8,IDLE,1768044769.042629,1768044769.068652,-14868,4220,4348,379,509,-177
8,IDLE,1768044769.042629,1768044769.068652,-14920,4352,4540,451,264,-558
8,IDLE,1768044769.042629,1768044769.068652,-15308,4272,4836,400,122,-817
8,IDLE,1768044769.042629,1768044769.068652,-15620,4512,5680,1039,-536,-1016
8,IDLE,1768044769.042629,1768044769.068652,-15904,4848,5604,1690,-1602,-1249
8,IDLE,1768044769.042629,1768044769.068652,-15760,5580,5536,1942,-2643,-1221
8,IDLE,1768044769.042629,1768044769.068652,-15636,5784,5408,2037,-2879,-1294
8,IDLE,1768044769.042629,1768044769.068652,-15588,6248,5144,2159,-3403,-1279
8,IDLE,1768044769.042629,1768044769.068652,-15328,6776,4860,2174,-4028,-1137
8,IDLE,1768044769.042629,1768044769.068652,-15056,7216,4240,1990,-4334,-858
8,IDLE,1768044769.042629,1768044769.068652,-14888,7624,3736,1723,-4374,-528
8,IDLE,1768044769.042629,1768044769.068652,-14740,7964,3228,1234,-4142,-116
8,IDLE,1768044769.042629,1768044769.068652,-14432,7948,2868,537,-3805,344
8,IDLE,1768044769.042629,1768044769.068652,-14236,7752,2568,202,-3386,774
8,IDLE,1768044769.042629,1768044769.068652,-14104,7584,2256,-146,-2909,1183
8,IDLE,1768044769.042629,1768044769.068652,-13992,7624,2096,-616,-2476,1474
8,IDLE,1768044769.042629,1768044769.068652,-13736,7444,1736,-1287,-1915,1685
8,IDLE,1768044769.042629,1768044769.068652,-13732,7160,1432,-1886,-1161,1963
8,IDLE,1768044769.042629,1768044769.068652,-13648,6684,1236,-2084,-401,2194
8,IDLE,1768044769.042629,1768044769.068652,-13584,6260,1164,-2204,375,2448
8,IDLE,1768044769.042629,1768044769.068652,-13468,5900,1276,-2293,1316,2490
8,IDLE,1768044769.042629,1768044769.068652,-13456,5476,1396,-2449,2086,2472
8,IDLE,1768044769.042629,1768044769.068652,-13480,5136,1448,-2680,2743,2322
8,IDLE,1768044769.042629,1768044769.068652,-13724,4828,1784,-2890,3555,2083
8,IDLE,1768044769.042629,1768044769.068652,-13960,4400,1964,-3019,4089,1690
8,IDLE,1768044769.042629,1768044769.068652,-14124,4052,2376,-3199,4619,1338
8,IDLE,1768044769.042629,1768044769.068652,-14436,3640,2684,-3273,5131,919
8,IDLE,1768044769.042629,1768044769.068652,-14696,3228,3140,-2963,5532,554
8,IDLE,1768044769.042629,1768044769.068652,-14896,2888,3684,-2536,5824,142
8,IDLE,1768044769.042629,1768044769.068652,-15188,2684,4272,-2161,5974,-435
8,IDLE,1768044769.042629,1768044769.068652,-15264,2480,5284,-1966,5718,-1238
8,IDLE,1768044769.042629,1768044769.068652,-15552,2512,5812,-1436,5256,-1921
8,IDLE,1768044769.042629,1768044769.068652,-15620,2964,6180,-851,4345,-2812
8,IDLE,1768044769.042629,1768044769.068652,-15668,3400,6296,-497,3350,-3490
8,IDLE,1768044769.042629,1768044769.068652,-15504,3964,6144,-287,2466,-3843
8,IDLE,1768044769.042629,1768044769.068652,-15336,4208,5556,-108,1986,-3852
8,IDLE,1768044769.042629,1768044769.068652,-15332,4532,5012,497,1468,-3839
8,IDLE,1768044769.042629,1768044769.068652,-15428,4976,4516,916,1201,-3820
8,IDLE,1768044769.042629,1768044769.068652,-15508,5392,3876,737,1344,-3898
8,IDLE,1768044769.042629,1768044769.068652,-15416,5432,3480,597,918,-3562
8,IDLE,1768044769.042629,1768044769.068652,-15264,5512,3292,787,787,-3047
9,IDLE,1768044769.1993856,1768044769.222682,-15344,5136,2968,1188,716,-2404
9,IDLE,1768044769.1993856,1768044769.222682,-15324,4916,2632,1563,752,-1969
9,IDLE,1768044769.1993856,1768044769.222682,-15192,4584,2412,2112,722,-1814
9,IDLE,1768044769.1993856,1768044769.222682,-14780,4132,2336,2690,515,-1610
9,IDLE,1768044769.1993856,1768044769.222682,-14556,3688,2024,3697,309,-1308
9,IDLE,1768044769.1993856,1768044769.222682,-15116,4220,1748,4304,624,-1405
9,IDLE,1768044769.1993856,1768044769.222682,-15664,5080,2012,2927,824,-2103
9,IDLE,1768044769.1993856,1768044769.222682,-15824,4928,2088,1118,598,-2463
9,IDLE,1768044769.1993856,1768044769.222682,-15732,4112,2132,919,175,-2161
9,IDLE,1768044769.1993856,1768044769.222682,-15760,4176,2004,1879,162,-1619
9,IDLE,1768044769.1993856,1768044769.222682,-15996,4244,2260,2423,334,-1323
9,IDLE,1768044769.1993856,1768044769.222682,-16148,4488,2280,2157,326,-1200
9,IDLE,1768044769.1993856,1768044769.222682,-16368,4560,2220,1198,144,-1293
9,IDLE,1768044769.1993856,1768044769.222682,-16132,4080,2268,355,-43,-1372
9,IDLE,1768044769.1993856,1768044769.222682,-15992,3816,2208,355,29,-1162
9,IDLE,1768044769.1993856,1768044769.222682,-15816,3668,2444,956,466,-825
9,IDLE,1768044769.1993856,1768044769.222682,-16064,3816,2168,691,-122,-721
9,IDLE,1768044769.1993856,1768044769.222682,-15764,3652,2084,604,-238,-436
9,IDLE,1768044769.1993856,1768044769.222682,-15312,3440,2036,325,-283,-463
9,IDLE,1768044769.1993856,1768044769.222682,-15232,3252,1968,-209,-247,-814
9,IDLE,1768044769.1993856,1768044769.222682,-15128,3272,1980,-662,-193,-1137
9,IDLE,1768044769.1993856,1768044769.222682,-15068,3252,2128,-1041,-281,-1368
9,IDLE,1768044769.1993856,1768044769.222682,-15044,3152,1908,-1507,-444,-1666
9,IDLE,1768044769.1993856,1768044769.222682,-15148,2944,1812,-1624,-147,-1906
9,IDLE,1768044769.1993856,1768044769.222682,-15408,3112,1864,-1271,356,-1913
9,IDLE,1768044769.1993856,1768044769.222682,-15720,3172,2008,-1009,789,-1691
9,IDLE,1768044769.1993856,1768044769.222682,-15912,3288,2124,-862,711,-1378
9,IDLE,1768044769.1993856,1768044769.222682,-16008,3208,2108,-782,612,-1043
9,IDLE,1768044769.1993856,1768044769.222682,-16076,3088,2284,-470,560,-675
9,IDLE,1768044769.1993856,1768044769.222682,-16340,3276,2180,-344,615,-503
9,IDLE,1768044769.1993856,1768044769.222682,-16440,3260,2144,-433,591,-249
9,IDLE,1768044769.1993856,1768044769.222682,-16280,3220,2300,-290,440,194
9,IDLE,1768044769.1993856,1768044769.222682,-16244,3104,2280,-169,263,423
9,IDLE,1768044769.1993856,1768044769.222682,-16116,2812,2316,-156,186,541
9,IDLE,1768044769.1993856,1768044769.222682,-16048,2896,2328,-170,53,579
9,IDLE,1768044769.1993856,1768044769.222682,-15700,2632,2352,-95,-243,721
9,IDLE,1768044769.1993856,1768044769.222682,-15536,2548,2288,107,-330,813
9,IDLE,1768044769.1993856,1768044769.222682,-15456,2484,2224,470,-173,884
9,IDLE,1768044769.1993856,1768044769.222682,-15532,2568,2236,636,-86,770
9,IDLE,1768044769.1993856,1768044769.222682,-15640,2744,2372,418,-134,559
9,IDLE,1768044769.1993856,1768044769.222682,-15664,2700,2336,398,-300,506
9,IDLE,1768044769.1993856,1768044769.222682,-15452,2732,2276,586,-407,549
9,IDLE,1768044769.1993856,1768044769.222682,-15300,2764,2160,810,-408,615
9,IDLE,1768044769.1993856,1768044769.222682,-15312,2960,2248,842,-295,643
9,IDLE,1768044769.1993856,1768044769.222682,-15240,3072,2276,714,-236,353
9,IDLE,1768044769.1993856,1768044769.222682,-15108,2984,2208,483,-301,163
9,IDLE,1768044769.1993856,1768044769.222682,-15112,3092,2200,537,-256,191
9,IDLE,1768044769.1993856,1768044769.222682,-15208,3280,2304,538,-242,115
9,IDLE,1768044769.1993856,1768044769.222682,-15364,3340,2296,338,-165,119
9,IDLE,1768044769.1993856,1768044769.222682,-15604,3392,2412,151,-270,82
10,IDLE,1768044769.3834243,1768044769.4097815,-15648,3516,2288,17,-240,135
10,IDLE,1768044769.3834243,1768044769.4097815,-15740,3348,2264,-1,-201,217
10,IDLE,1768044769.3834243,1768044769.4097815,-15760,3644,2672,158,-575,628
10,IDLE,1768044769.3834243,1768044769.4097815,-15868,3924,2964,462,-1565,2009
10,IDLE,1768044769.3834243,1768044769.4097815,-15688,3316,2716,735,-2269,3182
10,IDLE,1768044769.3834243,1768044769.4097815,-15484,3008,2460,1423,-1945,2782
10,IDLE,1768044769.3834243,1768044769.4097815,-15360,3320,2460,1250,-1291,1748
10,IDLE,1768044769.3834243,1768044769.4097815,-15172,3356,2524,434,-465,814
10,IDLE,1768044769.3834243,1768044769.4097815,-15192,3316,2548,75,243,146
10,IDLE,1768044769.3834243,1768044769.4097815,-15288,3188,2688,398,638,-23
10,IDLE,1768044769.3834243,1768044769.4097815,-15388,3360,2988,1293,698,170
10,IDLE,1768044769.3834243,1768044769.4097815,-15596,4160,3204,1893,169,1019
10,IDLE,1768044769.3834243,1768044769.4097815,-15832,4256,3572,1822,-1586,2639
10,IDLE,1768044769.3834243,1768044769.4097815,-15724,3604,2900,2374,-2640,3467
10,IDLE,1768044769.3834243,1768044769.4097815,-15776,3824,2996,3130,-2823,2876
10,IDLE,1768044769.3834243,1768044769.4097815,-15412,4096,2576,3019,-2689,2439
10,IDLE,1768044769.3834243,1768044769.4097815,-15280,4248,2696,2603,-2052,2036
10,IDLE,1768044769.3834243,1768044769.4097815,-15248,4396,2940,2250,-1867,1692
10,IDLE,1768044769.3834243,1768044769.4097815,-15300,4728,3160,1756,-1846,1308
10,IDLE,1768044769.3834243,1768044769.4097815,-15364,5076,3420,724,-2505,1225
10,IDLE,1768044769.3834243,1768044769.4097815,-15116,4920,3296,-37,-3353,1395
10,IDLE,1768044769.3834243,1768044769.4097815,-15036,5136,3468,-11,-3671,1735
10,IDLE,1768044769.3834243,1768044769.4097815,-14872,4796,3264,118,-3061,2193
10,IDLE,1768044769.3834243,1768044769.4097815,-15144,5492,4416,607,-3215,2661
10,IDLE,1768044769.3834243,1768044769.4097815,-15296,5544,4424,-189,-4651,3982
10,IDLE,1768044769.3834243,1768044769.4097815,-14656,4712,4472,157,-4862,3723
10,IDLE,1768044769.3834243,1768044769.4097815,-14476,5184,4484,822,-3731,2846
10,IDLE,1768044769.3834243,1768044769.4097815,-14156,5148,4284,732,-2696,2336
10,IDLE,1768044769.3834243,1768044769.4097815,-13828,5256,4188,646,-1416,1438
10,IDLE,1768044769.3834243,1768044769.4097815,-13776,5480,4320,407,-443,629
10,IDLE,1768044769.3834243,1768044769.4097815,-13964,5520,4416,196,862,-5
10,IDLE,1768044769.3834243,1768044769.4097815,-14152,5568,4500,-235,1445,-330
10,IDLE,1768044769.3834243,1768044769.4097815,-14372,5472,4596,-543,1340,-368
10,IDLE,1768044769.3834243,1768044769.4097815,-14636,5548,4664,-589,908,-52
10,IDLE,1768044769.3834243,1768044769.4097815,-14632,5460,4580,-469,361,289
10,IDLE,1768044769.3834243,1768044769.4097815,-14532,5460,4464,-423,490,75
10,IDLE,1768044769.3834243,1768044769.4097815,-14460,5440,4352,-598,788,-145
10,IDLE,1768044769.3834243,1768044769.4097815,-14576,5404,4388,-727,1084,-458
10,IDLE,1768044769.3834243,1768044769.4097815,-14552,5380,4472,-693,1047,-479
10,IDLE,1768044769.3834243,1768044769.4097815,-14696,5520,4480,-604,767,-289
10,IDLE,1768044769.3834243,1768044769.4097815,-14656,5380,4560,-505,272,-5
10,IDLE,1768044769.3834243,1768044769.4097815,-14552,5348,4388,-442,237,67
10,IDLE,1768044769.3834243,1768044769.4097815,-14344,5356,4308,-450,251,-54
10,IDLE,1768044769.3834243,1768044769.4097815,-14316,5352,4172,-478,480,-181
10,IDLE,1768044769.3834243,1768044769.4097815,-14196,5488,4260,-456,580,-100
10,IDLE,1768044769.3834243,1768044769.4097815,-14456,5516,4400,-522,600,-151
10,IDLE,1768044769.3834243,1768044769.4097815,-14536,5656,4512,-595,405,-106
10,IDLE,1768044769.3834243,1768044769.4097815,-14520,5712,4400,-649,320,-52
10,IDLE,1768044769.3834243,1768044769.4097815,-14452,5652,4396,-475,364,6
10,IDLE,1768044769.3834243,1768044769.4097815,-14396,5668,4332,-368,396,53
11,IDLE,1768044769.5418577,1768044769.574501,-14504,5684,4344,-299,370,98
11,IDLE,1768044769.5418577,1768044769.574501,-14492,5724,4392,-360,302,129
11,IDLE,1768044769.5418577,1768044769.574501,-14592,5796,4360,-345,315,139
11,IDLE,1768044769.5418577,1768044769.574501,-14560,5696,4352,-300,235,342
11,IDLE,1768044769.5418577,1768044769.574501,-14476,5604,4428,-172,273,387
11,IDLE,1768044769.5418577,1768044769.574501,-14400,5444,4456,-229,235,353
11,IDLE,1768044769.5418577,1768044769.574501,-14312,5516,4308,-252,232,293
11,IDLE,1768044769.5418577,1768044769.574501,-14400,5400,4212,-338,315,190
11,IDLE,1768044769.5418577,1768044769.574501,-14436,5584,4236,-387,427,118
11,IDLE,1768044769.5418577,1768044769.574501,-14496,5560,4168,-513,551,33
11,IDLE,1768044769.5418577,1768044769.574501,-14596,5668,4296,-749,727,-132
11,IDLE,1768044769.5418577,1768044769.574501,-14624,5668,4220,-860,653,-75
11,IDLE,1768044769.5418577,1768044769.574501,-14492,5560,4320,-816,745,-7
11,IDLE,1768044769.5418577,1768044769.574501,-14520,5372,4552,-618,822,32
11,IDLE,1768044769.5418577,1768044769.574501,-14432,5412,4352,-582,833,-51
11,IDLE,1768044769.5418577,1768044769.574501,-14460,5452,4192,-742,933,-258
11,IDLE,1768044769.5418577,1768044769.574501,-14476,5420,4264,-784,1082,-314
11,IDLE,1768044769.5418577,1768044769.574501,-14584,5444,4140,-694,1142,-375
11,IDLE,1768044769.5418577,1768044769.574501,-14704,5528,3964,-638,1350,-422
11,IDLE,1768044769.5418577,1768044769.574501,-14616,5520,4144,-684,1140,-471
11,IDLE,1768044769.5418577,1768044769.574501,-14672,5544,4248,-796,1094,-472
11,IDLE,1768044769.5418577,1768044769.574501,-14636,5524,4292,-829,952,-369
11,IDLE,1768044769.5418577,1768044769.574501,-14696,5480,4272,-845,953,-364
11,IDLE,1768044769.5418577,1768044769.574501,-14776,5384,4252,-805,811,-247
11,IDLE,1768044769.5418577,1768044769.574501,-14788,5368,4144,-688,752,-198
11,IDLE,1768044769.5418577,1768044769.574501,-14692,5336,4008,-572,661,-230
11,IDLE,1768044769.5418577,1768044769.574501,-14656,5404,3968,-530,588,-186
11,IDLE,1768044769.5418577,1768044769.574501,-14700,5380,3856,-512,561,-141
11,IDLE,1768044769.5418577,1768044769.574501,-14780,5428,3816,-598,589,-137
11,IDLE,1768044769.5418577,1768044769.574501,-14752,5448,3968,-658,609,-102
11,IDLE,1768044769.5418577,1768044769.574501,-14820,5256,4108,-553,428,5
11,IDLE,1768044769.5418577,1768044769.574501,-14808,5160,3940,-337,174,134
11,IDLE,1768044769.5418577,1768044769.574501,-14764,5144,3776,-234,133,136
11,IDLE,1768044769.5418577,1768044769.574501,-14744,5172,3732,-291,127,33
11,IDLE,1768044769.5418577,1768044769.574501,-14676,5272,3592,-398,166,5
11,IDLE,1768044769.5418577,1768044769.574501,-14696,5380,3696,-403,300,-21
11,IDLE,1768044769.5418577,1768044769.574501,-14688,5368,3712,-499,306,18
11,IDLE,1768044769.5418577,1768044769.574501,-14696,5208,3820,-458,324,76
11,IDLE,1768044769.5418577,1768044769.574501,-14772,5180,3960,-423,282,11
11,IDLE,1768044769.5418577,1768044769.574501,-14724,5156,3800,-439,311,-70
11,IDLE,1768044769.5418577,1768044769.574501,-14692,5176,3860,-503,438,-164
11,IDLE,1768044769.5418577,1768044769.574501,-14804,5156,3920,-490,448,-183
11,IDLE,1768044769.5418577,1768044769.574501,-14940,5220,3804,-450,394,-164
11,IDLE,1768044769.5418577,1768044769.574501,-14860,5252,3796,-550,424,-170
11,IDLE,1768044769.5418577,1768044769.574501,-14800,5160,3820,-678,357,-196
11,IDLE,1768044769.5418577,1768044769.574501,-14708,5052,3804,-564,342,-157
11,IDLE,1768044769.5418577,1768044769.574501,-14684,5132,3740,-429,390,-121
11,IDLE,1768044769.5418577,1768044769.574501,-14796,5164,3956,-509,500,-94
11,IDLE,1768044769.5418577,1768044769.574501,-14824,5184,3928,-560,418,-178
11,IDLE,1768044769.5418577,1768044769.574501,-14848,5232,4008,-615,307,-191
12,IDLE,1768044769.748811,1768044770.2548208,-14876,5120,3964,-558,243,-136
12,IDLE,1768044769.748811,1768044770.2548208,-14804,5104,3864,-278,226,-36
12,IDLE,1768044769.748811,1768044770.2548208,-14804,5232,3768,-256,260,29
12,IDLE,1768044769.748811,1768044770.2548208,-14792,5304,3876,-463,328,-81
12,IDLE,1768044769.748811,1768044770.2548208,-14860,5228,3940,-592,264,-40
12,IDLE,1768044769.748811,1768044770.2548208,-14892,5200,3936,-443,110,57
12,IDLE,1768044769.748811,1768044770.2548208,-14776,5076,3896,-267,66,143
12,IDLE,1768044769.748811,1768044770.2548208,-14820,5128,3780,-280,142,88
12,IDLE,1768044769.748811,1768044770.2548208,-14840,5096,3752,-389,187,90
12,IDLE,1768044769.748811,1768044770.2548208,-14892,5096,3976,-456,166,62
12,IDLE,1768044769.748811,1768044770.2548208,-14884,5124,3964,-330,99,148
12,IDLE,1768044769.748811,1768044770.2548208,-14824,5016,3928,-253,48,168
12,IDLE,1768044769.748811,1768044770.2548208,-14712,4996,3824,-271,-1,148
12,IDLE,1768044769.748811,1768044770.2548208,-14668,4948,3740,-344,87,78
12,IDLE,1768044769.748811,1768044770.2548208,-14636,4916,3684,-371,151,-91
12,IDLE,1768044769.748811,1768044770.2548208,-14660,5112,3672,-423,220,-184
12,IDLE,1768044769.748811,1768044770.2548208,-14660,5160,3732,-754,377,-267
12,IDLE,1768044769.748811,1768044770.2548208,-14736,5224,3712,-1291,417,-411
12,IDLE,1768044769.748811,1768044770.2548208,-14724,5048,3920,-1627,293,-558
12,IDLE,1768044769.748811,1768044770.2548208,-14812,4968,3856,-1346,439,-444
12,IDLE,1768044769.748811,1768044770.2548208,-14888,4968,4060,-804,618,-259
12,IDLE,1768044769.748811,1768044770.2548208,-15008,4988,4164,-356,513,-9
12,IDLE,1768044769.748811,1768044770.2548208,-14928,5040,4064,-239,298,137
12,IDLE,1768044769.748811,1768044770.2548208,-14840,4912,3988,-271,287,71
12,IDLE,1768044769.748811,1768044770.2548208,-14796,4912,3928,-156,302,67
12,IDLE,1768044769.748811,1768044770.2548208,-14776,5080,3960,-165,319,45
12,IDLE,1768044769.748811,1768044770.2548208,-14788,5132,3976,-419,294,45
12,IDLE,1768044769.748811,1768044770.2548208,-14776,5056,3852,-508,253,24
12,IDLE,1768044769.748811,1768044770.2548208,-14780,4952,3860,-619,252,-25
12,IDLE,1768044769.748811,1768044770.2548208,-14832,5216,3788,-1214,319,-284
12,IDLE,1768044769.748811,1768044770.2548208,-14768,5012,3808,-1950,368,-518
12,IDLE,1768044769.748811,1768044770.2548208,-14752,4656,3756,-2078,640,-675
12,IDLE,1768044769.748811,1768044770.2548208,-14744,4332,3760,-1421,1135,-625
12,IDLE,1768044769.748811,1768044770.2548208,-14900,4524,3996,-829,1150,-391
12,IDLE,1768044769.748811,1768044770.2548208,-14992,4604,3976,-584,924,-376
12,IDLE,1768044769.748811,1768044770.2548208,-14892,4700,3972,-522,691,-248
12,IDLE,1768044769.748811,1768044770.2548208,-14884,4664,3908,-364,631,-238
12,IDLE,1768044769.748811,1768044770.2548208,-14900,4668,3744,-218,805,-250
12,IDLE,1768044769.748811,1768044770.2548208,-15028,4724,3760,-336,711,-411
12,IDLE,1768044769.748811,1768044770.2548208,-15068,4864,3712,-435,594,-392
12,IDLE,1768044769.748811,1768044770.2548208,-15192,4876,3688,-405,429,-186
12,IDLE,1768044769.748811,1768044770.2548208,-15100,4872,3724,-67,289,2
12,IDLE,1768044769.748811,1768044770.2548208,-15068,4980,3568,-211,359,13
12,IDLE,1768044769.748811,1768044770.2548208,-14944,4744,3568,-381,240,90
12,IDLE,1768044769.748811,1768044770.2548208,-14928,4744,3536,-340,277,105
12,IDLE,1768044769.748811,1768044770.2548208,-14820,4716,3552,-358,392,131
12,IDLE,1768044769.748811,1768044770.2548208,-14804,4636,3684,-393,553,10
12,IDLE,1768044769.748811,1768044770.2548208,-14872,4552,3600,-389,569,26
12,IDLE,1768044769.748811,1768044770.2548208,-14940,4528,3600,-369,494,38
12,IDLE,1768044769.748811,1768044770.2548208,-15008,4496,3640,-312,352,17
13,IDLE,1768044770.2548208,1768044771.3536606,-14968,4520,3528,-241,453,-112
13,IDLE,1768044770.2548208,1768044771.3536606,-15088,4540,3460,-229,641,-186
13,IDLE,1768044770.2548208,1768044771.3536606,-15060,4684,3492,-320,727,-232
13,IDLE,1768044770.2548208,1768044771.3536606,-15140,4588,3592,-496,632,-192
13,IDLE,1768044770.2548208,1768044771.3536606,-15104,4508,3660,-462,387,-68
13,IDLE,1768044770.2548208,1768044771.3536606,-15084,4556,3616,-368,232,106
13,IDLE,1768044770.2548208,1768044771.3536606,-15020,4544,3636,-235,273,135
13,IDLE,1768044770.2548208,1768044771.3536606,-14992,4520,3512,-200,285,69
13,IDLE,1768044770.2548208,1768044771.3536606,-14976,4652,3632,-371,273,-66
13,IDLE,1768044770.2548208,1768044771.3536606,-15088,4752,3632,-528,270,-31
13,IDLE,1768044770.2548208,1768044771.3536606,-15052,4672,3600,-404,221,77
13,IDLE,1768044770.2548208,1768044771.3536606,-15076,4824,3744,-173,349,191
13,IDLE,1768044770.2548208,1768044771.3536606,-15124,4848,3716,-310,241,176
13,IDLE,1768044770.2548208,1768044771.3536606,-15184,4748,3820,-314,-97,303
13,IDLE,1768044770.2548208,1768044771.3536606,-15124,4660,3700,-191,-286,338
13,IDLE,1768044770.2548208,1768044771.3536606,-15060,4656,3724,-74,-278,352
13,IDLE,1768044770.2548208,1768044771.3536606,-15028,4624,3400,-25,-350,403
13,IDLE,1768044770.2548208,1768044771.3536606,-15008,4764,3412,-126,-375,353
13,IDLE,1768044770.2548208,1768044771.3536606,-15000,4580,3460,-181,-280,321
13,IDLE,1768044770.2548208,1768044771.3536606,-15220,4476,3752,-69,-485,481
13,IDLE,1768044770.2548208,1768044771.3536606,-15168,4604,3812,117,-1169,723
13,IDLE,1768044770.2548208,1768044771.3536606,-15332,4852,4016,23,-1601,969
13,IDLE,1768044770.2548208,1768044771.3536606,-15432,4788,4456,140,-2543,1764
13,IDLE,1768044770.2548208,1768044771.3536606,-14932,4696,4472,786,-3083,2082
13,IDLE,1768044770.2548208,1768044771.3536606,-14500,4764,4084,1123,-2415,1692
13,IDLE,1768044770.2548208,1768044771.3536606,-14692,5000,4156,821,-2035,1294
13,IDLE,1768044770.2548208,1768044771.3536606,-14596,5284,4456,501,-2446,1176
13,IDLE,1768044770.2548208,1768044771.3536606,-14344,5236,4572,379,-2241,988
13,IDLE,1768044770.2548208,1768044771.3536606,-14048,5276,4140,380,-1480,722
13,IDLE,1768044770.2548208,1768044771.3536606,-14056,5428,4060,166,-423,367
13,IDLE,1768044770.2548208,1768044771.3536606,-14148,5360,3968,-146,436,30
13,IDLE,1768044770.2548208,1768044771.3536606,-14336,5432,4180,-404,775,-99
13,IDLE,1768044770.2548208,1768044771.3536606,-14532,5532,4356,-568,574,-77
13,IDLE,1768044770.2548208,1768044771.3536606,-14548,5328,4432,-758,441,-32
13,IDLE,1768044770.2548208,1768044771.3536606,-14704,5324,4520,-613,256,53
13,IDLE,1768044770.2548208,1768044771.3536606,-14632,5308,4488,-397,154,146
13,IDLE,1768044770.2548208,1768044771.3536606,-14612,5424,4516,-301,164,293
13,IDLE,1768044770.2548208,1768044771.3536606,-14668,5524,4600,-415,123,302
13,IDLE,1768044770.2548208,1768044771.3536606,-14732,5656,4656,-623,157,299
13,IDLE,1768044770.2548208,1768044771.3536606,-14672,5592,4660,-698,197,359
13,IDLE,1768044770.2548208,1768044771.3536606,-14604,5624,4676,-721,250,325
13,IDLE,1768044770.2548208,1768044771.3536606,-14480,5624,4724,-798,352,274
13,IDLE,1768044770.2548208,1768044771.3536606,-14564,5680,4736,-986,449,265
13,IDLE,1768044770.2548208,1768044771.3536606,-14600,5648,4684,-1046,377,299
13,IDLE,1768044770.2548208,1768044771.3536606,-14612,5604,4636,-1132,376,258
13,IDLE,1768044770.2548208,1768044771.3536606,-14572,5476,4696,-1045,354,336
13,IDLE,1768044770.2548208,1768044771.3536606,-14472,5412,4592,-861,292,334
13,IDLE,1768044770.2548208,1768044771.3536606,-14340,5324,4440,-685,442,266
13,IDLE,1768044770.2548208,1768044771.3536606,-14316,5336,4448,-601,680,242
13,IDLE,1768044770.2548208,1768044771.3536606,-14356,5412,4544,-727,664,193
14,IDLE,1768044771.3536606,1768044772.452949,-14344,5312,4500,-903,692,147
14,IDLE,1768044771.3536606,1768044772.452949,-14392,5280,4496,-880,649,167
14,IDLE,1768044771.3536606,1768044772.452949,-14492,5228,4376,-722,571,134
14,IDLE,1768044771.3536606,1768044772.452949,-14640,5320,4420,-681,628,121
14,IDLE,1768044771.3536606,1768044772.452949,-14520,5336,4416,-710,665,129
14,IDLE,1768044771.3536606,1768044772.452949,-14632,5292,4456,-755,625,123
14,IDLE,1768044771.3536606,1768044772.452949,-14612,5176,4408,-715,476,142
14,IDLE,1768044771.3536606,1768044772.452949,-14616,5080,4356,-608,314,250
14,IDLE,1768044771.3536606,1768044772.452949,-14520,5036,4184,-604,417,241
14,IDLE,1768044771.3536606,1768044772.452949,-14468,5036,4272,-634,533,86
14,IDLE,1768044771.3536606,1768044772.452949,-14596,5088,4316,-701,572,24
14,IDLE,1768044771.3536606,1768044772.452949,-14592,5060,4292,-656,440,-43
14,IDLE,1768044771.3536606,1768044772.452949,-14736,5144,4304,-509,467,-45
14,IDLE,1768044771.3536606,1768044772.452949,-14696,5216,4320,-511,522,-66
14,IDLE,1768044771.3536606,1768044772.452949,-14636,5216,4404,-502,512,-27
14,IDLE,1768044771.3536606,1768044772.452949,-14560,5096,4344,-438,464,17
14,IDLE,1768044771.3536606,1768044772.452949,-14476,5124,4336,-342,367,-60
14,IDLE,1768044771.3536606,1768044772.452949,-14528,5088,4264,-366,446,-114
14,IDLE,1768044771.3536606,1768044772.452949,-14568,5296,4288,-484,461,-232
14,IDLE,1768044771.3536606,1768044772.452949,-14552,5300,4224,-565,639,-283
14,IDLE,1768044771.3536606,1768044772.452949,-14572,5456,4184,-575,846,-404
14,IDLE,1768044771.3536606,1768044772.452949,-14664,5432,4244,-732,1118,-476
14,IDLE,1768044771.3536606,1768044772.452949,-14772,5436,4232,-851,1187,-434
14,IDLE,1768044771.3536606,1768044772.452949,-14764,5128,4236,-748,933,-199
14,IDLE,1768044771.3536606,1768044772.452949,-14800,5068,4428,-390,648,-140
14,IDLE,1768044771.3536606,1768044772.452949,-14644,5156,4400,-439,509,-144
14,IDLE,1768044771.3536606,1768044772.452949,-14712,5096,4204,-398,500,-145
14,IDLE,1768044771.3536606,1768044772.452949,-14704,5184,4236,-376,616,-182
14,IDLE,1768044771.3536606,1768044772.452949,-14792,5180,4252,-373,459,-169
14,IDLE,1768044771.3536606,1768044772.452949,-14784,5124,4252,-326,426,-103
14,IDLE,1768044771.3536606,1768044772.452949,-14760,5160,4312,-318,373,-46
14,IDLE,1768044771.3536606,1768044772.452949,-14768,5064,4232,-409,283,-52
14,IDLE,1768044771.3536606,1768044772.452949,-14748,4968,4212,-379,234,-55
14,IDLE,1768044771.3536606,1768044772.452949,-14656,4944,4116,-281,249,-50
14,IDLE,1768044771.3536606,1768044772.452949,-14728,5012,4068,-229,223,-99
14,IDLE,1768044771.3536606,1768044772.452949,-14716,5196,4068,-417,259,-173
14,IDLE,1768044771.3536606,1768044772.452949,-14856,5156,4124,-488,285,-163
14,IDLE,1768044771.3536606,1768044772.452949,-14780,5032,4156,-305,305,-81
14,IDLE,1768044771.3536606,1768044772.452949,-14752,5064,4148,-190,285,-75
14,IDLE,1768044771.3536606,1768044772.452949,-14728,5040,4188,-289,194,-106
14,IDLE,1768044771.3536606,1768044772.452949,-14608,5056,4044,-377,204,-173
14,IDLE,1768044771.3536606,1768044772.452949,-14580,4996,3932,-398,301,-201
14,IDLE,1768044771.3536606,1768044772.452949,-14600,4956,3984,-301,406,-147
14,IDLE,1768044771.3536606,1768044772.452949,-14640,4940,4052,-371,441,-263
14,IDLE,1768044771.3536606,1768044772.452949,-14832,4928,4068,-438,299,-352
14,IDLE,1768044771.3536606,1768044772.452949,-14752,4840,3948,-508,386,-494
14,IDLE,1768044771.3536606,1768044772.452949,-14776,4828,3928,-578,538,-579
14,IDLE,1768044771.3536606,1768044772.452949,-14744,4792,3964,-486,613,-586
14,IDLE,1768044771.3536606,1768044772.452949,-14716,4816,3948,-301,629,-492
14,IDLE,1768044771.3536606,1768044772.452949,-14764,4824,4016,-302,593,-422
15,IDLE,1768044772.452949,1768044773.5595257,-14804,4720,4068,-207,614,-398
15,IDLE,1768044772.452949,1768044773.5595257,-14796,4716,3920,-120,599,-397
15,IDLE,1768044772.452949,1768044773.5595257,-14792,4740,3908,-231,640,-504
15,IDLE,1768044772.452949,1768044773.5595257,-14800,4668,3896,-204,777,-591
15,IDLE,1768044772.452949,1768044773.5595257,-14836,4716,3996,-196,795,-601
15,IDLE,1768044772.452949,1768044773.5595257,-14888,4788,3952,-309,799,-669
15,IDLE,1768044772.452949,1768044773.5595257,-14984,4708,3908,-479,849,-830
15,IDLE,1768044772.452949,1768044773.5595257,-15024,4708,4016,-646,787,-825
15,IDLE,1768044772.452949,1768044773.5595257,-15076,4732,4100,-586,694,-681
15,IDLE,1768044772.452949,1768044773.5595257,-15048,4596,3888,-363,641,-478
15,IDLE,1768044772.452949,1768044773.5595257,-15076,4584,3964,-103,515,-371
15,IDLE,1768044772.452949,1768044773.5595257,-15020,4580,3976,-201,413,-421
15,IDLE,1768044772.452949,1768044773.5595257,-15012,4516,3932,-436,427,-523
15,IDLE,1768044772.452949,1768044773.5595257,-15016,4460,3832,-427,386,-572
15,IDLE,1768044772.452949,1768044773.5595257,-15000,4468,3984,-189,420,-451
15,IDLE,1768044772.452949,1768044773.5595257,-15072,4536,3988,-56,413,-470
15,IDLE,1768044772.452949,1768044773.5595257,-15060,4504,3908,-175,286,-495
15,IDLE,1768044772.452949,1768044773.5595257,-15044,4544,3876,-164,145,-428
15,IDLE,1768044772.452949,1768044773.5595257,-14964,4496,3840,-156,204,-417
15,IDLE,1768044772.452949,1768044773.5595257,-14980,4540,3756,-184,188,-403
15,IDLE,1768044772.452949,1768044773.5595257,-14968,4568,3888,-118,219,-393
15,IDLE,1768044772.452949,1768044773.5595257,-15196,4596,3796,-166,282,-368
15,IDLE,1768044772.452949,1768044773.5595257,-15184,4676,3852,-191,164,-343
15,IDLE,1768044772.452949,1768044773.5595257,-15200,4608,3708,-169,115,-228
15,IDLE,1768044772.452949,1768044773.5595257,-15160,4608,3632,-117,37,-144
15,IDLE,1768044772.452949,1768044773.5595257,-15020,4720,3612,-257,77,-68
15,IDLE,1768044772.452949,1768044773.5595257,-15052,4544,3528,-270,120,-3
15,IDLE,1768044772.452949,1768044773.5595257,-14928,4420,3688,-146,125,127
15,IDLE,1768044772.452949,1768044773.5595257,-15040,4412,3500,-61,150,59
15,IDLE,1768044772.452949,1768044773.5595257,-14992,4492,3496,-297,194,-3
15,IDLE,1768044772.452949,1768044773.5595257,-15064,4368,3580,-377,316,-26
15,IDLE,1768044772.452949,1768044773.5595257,-15140,4332,3616,-113,236,68
15,IDLE,1768044772.452949,1768044773.5595257,-15148,4464,3624,-126,241,119
15,IDLE,1768044772.452949,1768044773.5595257,-15088,4484,3660,-212,301,86
15,IDLE,1768044772.452949,1768044773.5595257,-15080,4460,3732,-326,198,196
15,IDLE,1768044772.452949,1768044773.5595257,-15036,4300,3628,-212,306,195
15,IDLE,1768044772.452949,1768044773.5595257,-14900,4188,3736,-137,245,170
15,IDLE,1768044772.452949,1768044773.5595257,-14904,4240,3752,-64,204,164
15,IDLE,1768044772.452949,1768044773.5595257,-14920,4228,3640,29,337,104
15,IDLE,1768044772.452949,1768044773.5595257,-14964,4396,3572,-154,409,46
15,IDLE,1768044772.452949,1768044773.5595257,-15004,4360,3668,-194,453,67
15,IDLE,1768044772.452949,1768044773.5595257,-15096,4372,3724,-40,526,197
15,IDLE,1768044772.452949,1768044773.5595257,-15244,4448,3684,-109,490,109
15,IDLE,1768044772.452949,1768044773.5595257,-15208,4412,3712,-384,425,62
15,IDLE,1768044772.452949,1768044773.5595257,-15188,4264,3788,-395,384,60
15,IDLE,1768044772.452949,1768044773.5595257,-15088,4288,3720,-316,304,63
15,IDLE,1768044772.452949,1768044773.5595257,-15068,4404,3740,-317,344,74
15,IDLE,1768044772.452949,1768044773.5595257,-15156,4432,3696,-423,355,16
15,IDLE,1768044772.452949,1768044773.5595257,-15168,4388,3816,-401,412,44
15,IDLE,1768044772.452949,1768044773.5595257,-15236,4428,3772,-273,336,84
16,IDLE,1768044773.5595257,1768044774.650114,-15384,4424,3868,-225,210,116
16,IDLE,1768044773.5595257,1768044774.650114,-15308,4448,3772,-125,73,202
16,IDLE,1768044773.5595257,1768044774.650114,-15056,4412,3548,-169,-2,253
16,IDLE,1768044773.5595257,1768044774.650114,-14852,4300,3424,-221,73,273
16,IDLE,1768044773.5595257,1768044774.650114,-14896,4236,3520,-247,153,207
16,IDLE,1768044773.5595257,1768044774.650114,-14904,4328,3516,-312,221,104
16,IDLE,1768044773.5595257,1768044774.650114,-14980,4484,3592,-484,316,40
16,IDLE,1768044773.5595257,1768044774.650114,-15084,4352,3632,-468,362,-14
16,IDLE,1768044773.5595257,1768044774.650114,-15220,4356,3640,-347,283,91
16,IDLE,1768044773.5595257,1768044774.650114,-15212,4468,3676,-352,224,110
16,IDLE,1768044773.5595257,1768044774.650114,-15180,4416,3640,-372,214,101
16,IDLE,1768044773.5595257,1768044774.650114,-15132,4412,3624,-376,192,187
16,IDLE,1768044773.5595257,1768044774.650114,-15048,4376,3628,-405,106,200
16,IDLE,1768044773.5595257,1768044774.650114,-14984,4348,3644,-458,129,156
16,IDLE,1768044773.5595257,1768044774.650114,-14896,4264,3512,-491,143,114
16,IDLE,1768044773.5595257,1768044774.650114,-14996,4252,3524,-516,235,-30
16,IDLE,1768044773.5595257,1768044774.650114,-14984,4396,3660,-604,221,-165
16,IDLE,1768044773.5595257,1768044774.650114,-15128,4432,3700,-683,133,-217
16,IDLE,1768044773.5595257,1768044774.650114,-15076,4396,3732,-562,194,-61
16,IDLE,1768044773.5595257,1768044774.650114,-15168,4304,3820,-308,171,65
16,IDLE,1768044773.5595257,1768044774.650114,-15068,4360,3696,-194,129,155
16,IDLE,1768044773.5595257,1768044774.650114,-14956,4400,3652,-288,154,153
16,IDLE,1768044773.5595257,1768044774.650114,-14956,4300,3496,-352,151,121
16,IDLE,1768044773.5595257,1768044774.650114,-14964,4332,3484,-406,251,74
16,IDLE,1768044773.5595257,1768044774.650114,-15020,4296,3636,-406,295,15
16,IDLE,1768044773.5595257,1768044774.650114,-15148,4312,3652,-397,367,-31
16,IDLE,1768044773.5595257,1768044774.650114,-15336,4408,3864,-325,263,-10
16,IDLE,1768044773.5595257,1768044774.650114,-15236,4424,3896,-292,133,68
16,IDLE,1768044773.5595257,1768044774.650114,-15148,4336,3816,-135,61,180
16,IDLE,1768044773.5595257,1768044774.650114,-14996,4400,3608,-51,18,152
16,IDLE,1768044773.5595257,1768044774.650114,-14900,4276,3664,-154,37,160
16,IDLE,1768044773.5595257,1768044774.650114,-14864,4156,3584,-113,84,106
16,IDLE,1768044773.5595257,1768044774.650114,-14900,4300,3548,-108,92,-35
16,IDLE,1768044773.5595257,1768044774.650114,-14940,4496,3520,-315,287,-99
16,IDLE,1768044773.5595257,1768044774.650114,-15116,4452,3624,-420,358,-135
16,IDLE,1768044773.5595257,1768044774.650114,-15156,4488,3784,-245,309,-52
16,IDLE,1768044773.5595257,1768044774.650114,-15140,4500,3732,-215,282,45
16,IDLE,1768044773.5595257,1768044774.650114,-15124,4504,3868,-304,211,83
16,IDLE,1768044773.5595257,1768044774.650114,-15032,4428,3900,-294,66,98
16,IDLE,1768044773.5595257,1768044774.650114,-14968,4276,3620,-217,95,71
16,IDLE,1768044773.5595257,1768044774.650114,-14844,4368,3612,-119,194,9
16,IDLE,1768044773.5595257,1768044774.650114,-14996,4464,3628,-229,298,-25
16,IDLE,1768044773.5595257,1768044774.650114,-15100,4544,3616,-350,292,-105
16,IDLE,1768044773.5595257,1768044774.650114,-15192,4612,3644,-421,318,-81
16,IDLE,1768044773.5595257,1768044774.650114,-15276,4596,3672,-392,341,50
16,IDLE,1768044773.5595257,1768044774.650114,-15256,4548,3820,-324,217,221
16,IDLE,1768044773.5595257,1768044774.650114,-15088,4488,3752,-321,110,207
16,IDLE,1768044773.5595257,1768044774.650114,-14984,4288,3740,-300,108,132
16,IDLE,1768044773.5595257,1768044774.650114,-14904,4336,3616,-352,98,74
16,IDLE,1768044773.5595257,1768044774.650114,-14880,4388,3644,-439,167,26
17,IDLE,1768044774.650114,1768044775.7633183,-14984,4408,3688,-313,256,6
17,IDLE,1768044774.650114,1768044775.7633183,-15152,4540,3748,-374,264,-24
17,IDLE,1768044774.650114,1768044775.7633183,-15272,4588,3828,-424,149,19
17,IDLE,1768044774.650114,1768044775.7633183,-15188,4528,3684,-484,154,146
17,IDLE,1768044774.650114,1768044775.7633183,-15112,4416,3712,-354,206,208
17,IDLE,1768044774.650114,1768044775.7633183,-15116,4412,3648,-400,122,203
17,IDLE,1768044774.650114,1768044775.7633183,-14980,4308,3616,-352,27,202
17,IDLE,1768044774.650114,1768044775.7633183,-14852,4244,3536,-241,73,166
17,IDLE,1768044774.650114,1768044775.7633183,-14880,4316,3580,-335,280,44
17,IDLE,1768044774.650114,1768044775.7633183,-14976,4292,3592,-413,271,-26
17,IDLE,1768044774.650114,1768044775.7633183,-15116,4352,3740,-373,274,-80
17,IDLE,1768044774.650114,1768044775.7633183,-15172,4496,3668,-385,293,-55
17,IDLE,1768044774.650114,1768044775.7633183,-15176,4552,3752,-368,371,47
17,IDLE,1768044774.650114,1768044775.7633183,-15240,4364,3808,-348,252,85
17,IDLE,1768044774.650114,1768044775.7633183,-15052,4340,3672,-382,108,99
17,IDLE,1768044774.650114,1768044775.7633183,-15048,4296,3780,-380,143,44
17,IDLE,1768044774.650114,1768044775.7633183,-15044,4356,3728,-266,178,49
17,IDLE,1768044774.650114,1768044775.7633183,-15008,4448,3588,-328,170,-15
17,IDLE,1768044774.650114,1768044775.7633183,-15076,4520,3504,-324,222,-14
17,IDLE,1768044774.650114,1768044775.7633183,-15116,4516,3632,-385,167,55
17,IDLE,1768044774.650114,1768044775.7633183,-15000,4416,3656,-420,168,84
17,IDLE,1768044774.650114,1768044775.7633183,-14984,4444,3624,-430,281,74
17,IDLE,1768044774.650114,1768044775.7633183,-15004,4388,3760,-384,329,96
17,IDLE,1768044774.650114,1768044775.7633183,-15004,4436,3740,-443,283,72
17,IDLE,1768044774.650114,1768044775.7633183,-15060,4472,3732,-440,259,43
17,IDLE,1768044774.650114,1768044775.7633183,-15080,4440,3784,-380,232,22
17,IDLE,1768044774.650114,1768044775.7633183,-15076,4476,3808,-340,214,95
17,IDLE,1768044774.650114,1768044775.7633183,-15092,4468,3760,-336,187,86
17,IDLE,1768044774.650114,1768044775.7633183,-15068,4480,3688,-398,96,119
17,IDLE,1768044774.650114,1768044775.7633183,-14964,4352,3616,-322,177,150
17,IDLE,1768044774.650114,1768044775.7633183,-14948,4336,3576,-245,264,93
17,IDLE,1768044774.650114,1768044775.7633183,-15096,4340,3744,-369,273,-6
17,IDLE,1768044774.650114,1768044775.7633183,-15124,4492,3720,-474,208,-20
17,IDLE,1768044774.650114,1768044775.7633183,-15020,4384,3776,-518,215,80
17,IDLE,1768044774.650114,1768044775.7633183,-15012,4432,3604,-352,220,105
17,IDLE,1768044774.650114,1768044775.7633183,-14908,4404,3628,-400,235,84
17,IDLE,1768044774.650114,1768044775.7633183,-15028,4376,3676,-584,306,43
17,IDLE,1768044774.650114,1768044775.7633183,-15052,4316,3684,-477,269,38
17,IDLE,1768044774.650114,1768044775.7633183,-15112,4344,3812,-263,248,50
17,IDLE,1768044774.650114,1768044775.7633183,-15208,4540,3864,-347,250,4
17,IDLE,1768044774.650114,1768044775.7633183,-15220,4428,3936,-334,123,60
17,IDLE,1768044774.650114,1768044775.7633183,-15088,4388,3736,-230,57,166
17,IDLE,1768044774.650114,1768044775.7633183,-14972,4356,3808,-343,75,134
17,IDLE,1768044774.650114,1768044775.7633183,-14908,4296,3640,-429,74,38
17,IDLE,1768044774.650114,1768044775.7633183,-14924,4304,3696,-419,148,12
17,IDLE,1768044774.650114,1768044775.7633183,-14992,4428,3720,-405,212,-73
17,IDLE,1768044774.650114,1768044775.7633183,-15104,4496,3848,-406,124,15
17,IDLE,1768044774.650114,1768044775.7633183,-15140,4416,3784,-297,105,60
17,IDLE,1768044774.650114,1768044775.7633183,-15052,4484,3648,-252,60,27
17,IDLE,1768044774.650114,1768044775.7633183,-15092,4484,3600,-392,139,90
18,IDLE,1768044775.7644756,1768044776.8552582,-15048,4484,3748,-383,129,82
18,IDLE,1768044775.7644756,1768044776.8552582,-14976,4360,3720,-258,180,123
18,IDLE,1768044775.7644756,1768044776.8552582,-14948,4328,3732,-253,119,148
18,IDLE,1768044775.7644756,1768044776.8552582,-14916,4300,3772,-406,120,86
18,IDLE,1768044775.7644756,1768044776.8552582,-14868,4276,3724,-347,200,43
18,IDLE,1768044775.7644756,1768044776.8552582,-15048,4352,3824,-305,256,-29
18,IDLE,1768044775.7644756,1768044776.8552582,-15112,4504,3740,-280,216,-14
18,IDLE,1768044775.7644756,1768044776.8552582,-15104,4488,3704,-265,161,19
18,IDLE,1768044775.7644756,1768044776.8552582,-15116,4448,3672,-343,181,79
18,IDLE,1768044775.7644756,1768044776.8552582,-15148,4496,3768,-305,151,150
18,IDLE,1768044775.7644756,1768044776.8552582,-14976,4396,3716,-259,179,181
18,IDLE,1768044775.7644756,1768044776.8552582,-14960,4328,3724,-227,112,126
18,IDLE,1768044775.7644756,1768044776.8552582,-14928,4316,3644,-327,138,93
18,IDLE,1768044775.7644756,1768044776.8552582,-14952,4288,3704,-300,254,52
18,IDLE,1768044775.7644756,1768044776.8552582,-14996,4304,3708,-232,240,47
18,IDLE,1768044775.7644756,1768044776.8552582,-15044,4396,3684,-164,223,8
18,IDLE,1768044775.7644756,1768044776.8552582,-15128,4528,3692,-319,380,-21
18,IDLE,1768044775.7644756,1768044776.8552582,-15180,4424,3760,-291,238,135
18,IDLE,1768044775.7644756,1768044776.8552582,-14936,4336,3792,-164,197,156
18,IDLE,1768044775.7644756,1768044776.8552582,-14936,4316,3812,-311,291,90
18,IDLE,1768044775.7644756,1768044776.8552582,-14924,4276,3796,-406,228,-64
18,IDLE,1768044775.7644756,1768044776.8552582,-15052,4316,3832,-364,188,-98
18,IDLE,1768044775.7644756,1768044776.8552582,-15144,4504,3848,-217,188,-15
18,IDLE,1768044775.7644756,1768044776.8552582,-15220,4668,3732,-174,219,53
18,IDLE,1768044775.7644756,1768044776.8552582,-15176,4532,3860,-218,76,144
18,IDLE,1768044775.7644756,1768044776.8552582,-15036,4444,3688,-193,77,114
18,IDLE,1768044775.7644756,1768044776.8552582,-14968,4404,3668,-208,198,57
18,IDLE,1768044775.7644756,1768044776.8552582,-14944,4476,3788,-305,201,72
18,IDLE,1768044775.7644756,1768044776.8552582,-15028,4460,3772,-340,173,123
18,IDLE,1768044775.7644756,1768044776.8552582,-14908,4476,3744,-264,178,166
18,IDLE,1768044775.7644756,1768044776.8552582,-15004,4424,3832,-348,188,69
18,IDLE,1768044775.7644756,1768044776.8552582,-14996,4512,3768,-406,216,16
18,IDLE,1768044775.7644756,1768044776.8552582,-15068,4540,3820,-325,202,44
18,IDLE,1768044775.7644756,1768044776.8552582,-15192,4592,3820,-194,168,157
18,IDLE,1768044775.7644756,1768044776.8552582,-15120,4620,3760,-209,153,195
18,IDLE,1768044775.7644756,1768044776.8552582,-15084,4504,3748,-347,143,152
18,IDLE,1768044775.7644756,1768044776.8552582,-15012,4460,3800,-413,140,133
18,IDLE,1768044775.7644756,1768044776.8552582,-15060,4404,3772,-421,113,120
18,IDLE,1768044775.7644756,1768044776.8552582,-14876,4424,3748,-310,199,223
18,IDLE,1768044775.7644756,1768044776.8552582,-14924,4316,3784,-325,288,183
18,IDLE,1768044775.7644756,1768044776.8552582,-14996,4420,3940,-385,199,109
18,IDLE,1768044775.7644756,1768044776.8552582,-15064,4348,3768,-295,124,26
18,IDLE,1768044775.7644756,1768044776.8552582,-15068,4528,3812,-346,158,15
18,IDLE,1768044775.7644756,1768044776.8552582,-14968,4428,3796,-264,228,110
18,IDLE,1768044775.7644756,1768044776.8552582,-14924,4380,3824,-214,208,134
18,IDLE,1768044775.7644756,1768044776.8552582,-14984,4336,3824,-337,199,96
18,IDLE,1768044775.7644756,1768044776.8552582,-14972,4312,3804,-402,189,20
18,IDLE,1768044775.7644756,1768044776.8552582,-14984,4376,3728,-389,225,-28
18,IDLE,1768044775.7644756,1768044776.8552582,-15076,4420,3724,-376,252,-49
18,IDLE,1768044775.7644756,1768044776.8552582,-15140,4628,3860,-417,244,-27
19,IDLE,1768044776.8552582,1768044777.9591281,-15144,4516,3952,-313,173,38
19,IDLE,1768044776.8552582,1768044777.9591281,-15168,4528,3872,-177,120,130
19,IDLE,1768044776.8552582,1768044777.9591281,-15068,4568,3828,-162,127,138
19,IDLE,1768044776.8552582,1768044777.9591281,-14924,4456,3768,-214,74,139
19,IDLE,1768044776.8552582,1768044777.9591281,-14800,4364,3744,-223,108,116
19,IDLE,1768044776.8552582,1768044777.9591281,-14740,4376,3696,-269,251,53
19,IDLE,1768044776.8552582,1768044777.9591281,-14820,4384,3664,-419,309,-45
19,IDLE,1768044776.8552582,1768044777.9591281,-14928,4516,3828,-516,364,-69
19,IDLE,1768044776.8552582,1768044777.9591281,-14964,4520,3772,-512,363,-57
19,IDLE,1768044776.8552582,1768044777.9591281,-15172,4592,3900,-368,369,-15
19,IDLE,1768044776.8552582,1768044777.9591281,-15168,4620,3868,-412,241,0
19,IDLE,1768044776.8552582,1768044777.9591281,-15148,4608,3888,-381,186,72
19,IDLE,1768044776.8552582,1768044777.9591281,-15136,4612,3972,-307,136,171
19,IDLE,1768044776.8552582,1768044777.9591281,-15076,4504,3976,-196,75,184
19,IDLE,1768044776.8552582,1768044777.9591281,-15052,4604,3868,-279,-6,207
19,IDLE,1768044776.8552582,1768044777.9591281,-14884,4408,3888,-384,-29,222
19,IDLE,1768044776.8552582,1768044777.9591281,-15000,4316,3820,-175,-17,223
19,IDLE,1768044776.8552582,1768044777.9591281,-15004,4300,3740,-16,0,222
19,IDLE,1768044776.8552582,1768044777.9591281,-14960,4424,3736,-94,12,150
19,IDLE,1768044776.8552582,1768044777.9591281,-15024,4404,3836,-316,57,102
19,IDLE,1768044776.8552582,1768044777.9591281,-14976,4388,3760,-272,37,46
19,IDLE,1768044776.8552582,1768044777.9591281,-14952,4348,3728,-181,45,108
19,IDLE,1768044776.8552582,1768044777.9591281,-14988,4364,3788,-104,49,77
19,IDLE,1768044776.8552582,1768044777.9591281,-15024,4472,3792,-181,90,52
19,IDLE,1768044776.8552582,1768044777.9591281,-14976,4452,3876,-234,111,61
19,IDLE,1768044776.8552582,1768044777.9591281,-14908,4440,3788,-213,78,46
19,IDLE,1768044776.8552582,1768044777.9591281,-14840,4476,3700,-213,88,21
19,IDLE,1768044776.8552582,1768044777.9591281,-14812,4452,3672,-147,201,-22
19,IDLE,1768044776.8552582,1768044777.9591281,-14948,4608,3732,-199,248,-76
19,IDLE,1768044776.8552582,1768044777.9591281,-14980,4624,3756,-269,312,-31
19,IDLE,1768044776.8552582,1768044777.9591281,-15032,4620,3892,-267,268,23
19,IDLE,1768044776.8552582,1768044777.9591281,-14964,4560,4092,-240,225,8
19,IDLE,1768044776.8552582,1768044777.9591281,-14912,4560,3764,-249,200,59
19,IDLE,1768044776.8552582,1768044777.9591281,-14992,4628,3980,-210,227,36
19,IDLE,1768044776.8552582,1768044777.9591281,-14988,4640,3988,-266,285,50
19,IDLE,1768044776.8552582,1768044777.9591281,-14964,4548,3812,-211,232,78
19,IDLE,1768044776.8552582,1768044777.9591281,-15028,4656,3872,-201,178,128
19,IDLE,1768044776.8552582,1768044777.9591281,-15000,4632,3892,-246,195,91
19,IDLE,1768044776.8552582,1768044777.9591281,-14980,4676,3940,-296,247,149
19,IDLE,1768044776.8552582,1768044777.9591281,-15004,4484,3976,-300,181,184
19,IDLE,1768044776.8552582,1768044777.9591281,-14952,4492,3832,-310,178,125
19,IDLE,1768044776.8552582,1768044777.9591281,-14892,4516,3876,-331,196,139
19,IDLE,1768044776.8552582,1768044777.9591281,-14944,4484,3804,-305,204,139
19,IDLE,1768044776.8552582,1768044777.9591281,-14988,4428,3852,-103,144,115
19,IDLE,1768044776.8552582,1768044777.9591281,-14964,4548,3752,-205,212,59
19,IDLE,1768044776.8552582,1768044777.9591281,-14988,4516,3780,-339,250,41
19,IDLE,1768044776.8552582,1768044777.9591281,-14992,4508,3888,-310,220,85
19,IDLE,1768044776.8552582,1768044777.9591281,-14864,4416,3888,-194,205,121
19,IDLE,1768044776.8552582,1768044777.9591281,-14956,4380,3800,-237,299,57
19,IDLE,1768044776.8552582,1768044777.9591281,-14920,4432,3900,-211,248,33
20,IDLE,1768044777.9591281,1768044779.0499277,-14944,4468,3840,-94,271,11
20,IDLE,1768044777.9591281,1768044779.0499277,-15040,4584,3916,-99,275,7
20,IDLE,1768044777.9591281,1768044779.0499277,-15036,4620,3984,-132,209,46
20,IDLE,1768044777.9591281,1768044779.0499277,-15064,4584,3896,-97,179,56
20,IDLE,1768044777.9591281,1768044779.0499277,-15000,4668,3908,-158,211,77
20,IDLE,1768044777.9591281,1768044779.0499277,-14964,4704,3980,-174,191,99
20,IDLE,1768044777.9591281,1768044779.0499277,-15044,4692,3872,-267,134,116
20,IDLE,1768044777.9591281,1768044779.0499277,-14988,4632,3896,-286,79,109
20,IDLE,1768044777.9591281,1768044779.0499277,-14924,4596,3956,-255,64,88
20,IDLE,1768044777.9591281,1768044779.0499277,-14976,4560,3844,-270,126,120
20,IDLE,1768044777.9591281,1768044779.0499277,-15008,4688,3932,-341,207,62
20,IDLE,1768044777.9591281,1768044779.0499277,-15012,4608,3884,-416,149,101
20,IDLE,1768044777.9591281,1768044779.0499277,-15020,4548,3940,-267,84,187
20,IDLE,1768044777.9591281,1768044779.0499277,-14956,4708,3912,-364,127,178
20,IDLE,1768044777.9591281,1768044779.0499277,-14956,4612,3892,-498,128,121
20,IDLE,1768044777.9591281,1768044779.0499277,-14932,4568,3912,-496,135,139
20,IDLE,1768044777.9591281,1768044779.0499277,-14928,4508,3884,-386,91,155
20,IDLE,1768044777.9591281,1768044779.0499277,-14920,4652,3924,-418,106,122
20,IDLE,1768044777.9591281,1768044779.0499277,-14984,4592,3872,-451,129,98
20,IDLE,1768044777.9591281,1768044779.0499277,-15000,4468,3932,-366,70,156
20,IDLE,1768044777.9591281,1768044779.0499277,-14872,4576,3776,-349,121,130
20,IDLE,1768044777.9591281,1768044779.0499277,-14828,4540,3912,-462,245,53
20,IDLE,1768044777.9591281,1768044779.0499277,-14940,4512,3916,-403,246,86
20,IDLE,1768044777.9591281,1768044779.0499277,-14824,4596,3924,-374,237,65
20,IDLE,1768044777.9591281,1768044779.0499277,-14964,4476,3884,-473,180,30
20,IDLE,1768044777.9591281,1768044779.0499277,-14888,4540,3812,-456,182,-13
20,IDLE,1768044777.9591281,1768044779.0499277,-14888,4632,3868,-459,285,-41
20,IDLE,1768044777.9591281,1768044779.0499277,-14972,4700,3860,-457,307,14
20,IDLE,1768044777.9591281,1768044779.0499277,-14980,4684,3792,-422,223,92
20,IDLE,1768044777.9591281,1768044779.0499277,-14908,4628,3808,-410,278,99
20,IDLE,1768044777.9591281,1768044779.0499277,-14984,4576,3868,-427,322,40
20,IDLE,1768044777.9591281,1768044779.0499277,-14956,4608,3972,-292,341,27
20,IDLE,1768044777.9591281,1768044779.0499277,-14932,4720,3964,-250,227,91
20,IDLE,1768044777.9591281,1768044779.0499277,-14888,4716,3880,-241,246,147
20,IDLE,1768044777.9591281,1768044779.0499277,-14908,4632,4036,-293,228,133
20,IDLE,1768044777.9591281,1768044779.0499277,-14884,4552,4012,-407,236,73
20,IDLE,1768044777.9591281,1768044779.0499277,-14956,4572,3960,-310,218,112
20,IDLE,1768044777.9591281,1768044779.0499277,-14916,4648,3884,-272,255,141
20,IDLE,1768044777.9591281,1768044779.0499277,-15024,4664,3924,-394,240,77
20,IDLE,1768044777.9591281,1768044779.0499277,-14940,4636,3768,-489,195,96
20,IDLE,1768044777.9591281,1768044779.0499277,-14912,4576,3864,-370,312,104
20,IDLE,1768044777.9591281,1768044779.0499277,-14984,4544,3900,-288,292,158
20,IDLE,1768044777.9591281,1768044779.0499277,-14948,4556,4000,-245,237,135
20,IDLE,1768044777.9591281,1768044779.0499277,-15044,4504,4000,-178,155,154
20,IDLE,1768044777.9591281,1768044779.0499277,-14968,4576,3984,-147,71,160
20,IDLE,1768044777.9591281,1768044779.0499277,-15012,4548,3804,-100,34,169
20,IDLE,1768044777.9591281,1768044779.0499277,-14872,4536,3644,-114,137,132
20,IDLE,1768044777.9591281,1768044779.0499277,-14888,4604,3796,-204,247,72
20,IDLE,1768044777.9591281,1768044779.0499277,-15004,4516,3824,-165,238,96
20,IDLE,1768044777.9591281,1768044779.0499277,-14912,4552,3788,-216,195,75
21,IDLE,1768044779.1108558,1768044780.1510148,-14960,4512,3796,-301,190,37
21,IDLE,1768044779.1108558,1768044780.1510148,-14912,4524,3828,-307,176,-29
21,IDLE,1768044779.1108558,1768044780.1510148,-14924,4608,3776,-252,278,-43
21,IDLE,1768044779.1108558,1768044780.1510148,-14944,4620,3744,-241,293,-67
21,IDLE,1768044779.1108558,1768044780.1510148,-14972,4688,3812,-212,283,-40
21,IDLE,1768044779.1108558,1768044780.1510148,-14972,4668,3764,-341,258,-34
21,IDLE,1768044779.1108558,1768044780.1510148,-14900,4676,3872,-383,220,-74
21,IDLE,1768044779.1108558,1768044780.1510148,-14908,4668,3800,-299,303,-57
21,IDLE,1768044779.1108558,1768044780.1510148,-15016,4724,3876,-261,312,18
21,IDLE,1768044779.1108558,1768044780.1510148,-15020,4692,4040,-260,240,10
21,IDLE,1768044779.1108558,1768044780.1510148,-14976,4644,3872,-273,203,21
21,IDLE,1768044779.1108558,1768044780.1510148,-15016,4576,3896,-204,156,28
21,IDLE,1768044779.1108558,1768044780.1510148,-14916,4616,3832,-159,190,79
21,IDLE,1768044779.1108558,1768044780.1510148,-14968,4656,3888,-89,176,60
21,IDLE,1768044779.1108558,1768044780.1510148,-14944,4756,3788,-202,200,61
21,IDLE,1768044779.1108558,1768044780.1510148,-14916,4704,3908,-327,225,47
21,IDLE,1768044779.1108558,1768044780.1510148,-15016,4648,3840,-301,201,78
21,IDLE,1768044779.1108558,1768044780.1510148,-14936,4640,3884,-221,220,94
21,IDLE,1768044779.1108558,1768044780.1510148,-14960,4636,3712,-199,223,113
21,IDLE,1768044779.1108558,1768044780.1510148,-14984,4640,3920,-267,205,95
21,IDLE,1768044779.1108558,1768044780.1510148,-14984,4480,3872,-209,164,132
21,IDLE,1768044779.1108558,1768044780.1510148,-14896,4540,3736,-161,156,68
21,IDLE,1768044779.1108558,1768044780.1510148,-14868,4668,3808,-265,284,15
21,IDLE,1768044779.1108558,1768044780.1510148,-15012,4552,3848,-287,292,36
21,IDLE,1768044779.1108558,1768044780.1510148,-14984,4548,3952,-201,197,60
21,IDLE,1768044779.1108558,1768044780.1510148,-14984,4616,3996,-288,172,31
21,IDLE,1768044779.1108558,1768044780.1510148,-15004,4604,4060,-261,174,60
21,IDLE,1768044779.1108558,1768044780.1510148,-15068,4648,3904,-123,153,3
21,IDLE,1768044779.1108558,1768044780.1510148,-15008,4636,4024,-21,93,58
21,IDLE,1768044779.1108558,1768044780.1510148,-15000,4784,3908,-26,28,82
21,IDLE,1768044779.1108558,1768044780.1510148,-14872,4736,3812,-101,24,104
21,IDLE,1768044779.1108558,1768044780.1510148,-14888,4728,3800,-137,130,78
21,IDLE,1768044779.1108558,1768044780.1510148,-14840,4768,3764,-258,163,60
21,IDLE,1768044779.1108558,1768044780.1510148,-14848,4676,3796,-296,175,81
21,IDLE,1768044779.1108558,1768044780.1510148,-14908,4712,3756,-353,272,85
21,IDLE,1768044779.1108558,1768044780.1510148,-15032,4780,3844,-439,271,96
21,IDLE,1768044779.1108558,1768044780.1510148,-14920,4736,3892,-487,265,81
21,IDLE,1768044779.1108558,1768044780.1510148,-14872,4752,3880,-436,268,141
21,IDLE,1768044779.1108558,1768044780.1510148,-14960,4696,3948,-339,233,204
21,IDLE,1768044779.1108558,1768044780.1510148,-14876,4580,3832,-350,159,159
21,IDLE,1768044779.1108558,1768044780.1510148,-14936,4612,3960,-359,220,145
21,IDLE,1768044779.1108558,1768044780.1510148,-14892,4760,3840,-343,246,60
21,IDLE,1768044779.1108558,1768044780.1510148,-15004,4664,3804,-322,235,132
21,IDLE,1768044779.1108558,1768044780.1510148,-14940,4704,3792,-248,223,172
21,IDLE,1768044779.1108558,1768044780.1510148,-14948,4712,3824,-376,367,186
21,IDLE,1768044779.1108558,1768044780.1510148,-14856,4520,3872,-320,297,143
21,IDLE,1768044779.1108558,1768044780.1510148,-14912,4536,3796,-265,226,118
21,IDLE,1768044779.1108558,1768044780.1510148,-14884,4656,3876,-324,309,-2
21,IDLE,1768044779.1108558,1768044780.1510148,-14936,4748,3796,-391,360,-39
21,IDLE,1768044779.1108558,1768044780.1510148,-14944,4772,3824,-401,297,53
22,IDLE,1768044780.1510148,1768044781.2630718,-14944,4744,3836,-375,245,78
22,IDLE,1768044780.1510148,1768044781.2630718,-14932,4592,3844,-366,220,123
22,IDLE,1768044780.1510148,1768044781.2630718,-14892,4492,3776,-232,232,136
22,IDLE,1768044780.1510148,1768044781.2630718,-14928,4524,3784,-108,242,29
22,IDLE,1768044780.1510148,1768044781.2630718,-14820,4744,3784,-163,230,45
22,IDLE,1768044780.1510148,1768044781.2630718,-14940,4652,3764,-200,189,68
22,IDLE,1768044780.1510148,1768044781.2630718,-14916,4684,3728,-187,256,3
22,IDLE,1768044780.1510148,1768044781.2630718,-15020,4828,3760,-159,267,25
22,IDLE,1768044780.1510148,1768044781.2630718,-15036,4816,3792,-150,250,87
22,IDLE,1768044780.1510148,1768044781.2630718,-14864,4832,3796,-221,301,108
22,IDLE,1768044780.1510148,1768044781.2630718,-14932,4768,3772,-299,307,87
22,IDLE,1768044780.1510148,1768044781.2630718,-14928,4732,3864,-352,386,19
22,IDLE,1768044780.1510148,1768044781.2630718,-14964,4680,3932,-292,332,122
22,IDLE,1768044780.1510148,1768044781.2630718,-14992,4604,3820,-285,230,92
22,IDLE,1768044780.1510148,1768044781.2630718,-14884,4580,3796,-282,165,34
22,IDLE,1768044780.1510148,1768044781.2630718,-14920,4672,3708,-308,214,-18
22,IDLE,1768044780.1510148,1768044781.2630718,-15052,4772,3784,-274,214,-23
22,IDLE,1768044780.1510148,1768044781.2630718,-15072,4780,3664,-190,217,39
22,IDLE,1768044780.1510148,1768044781.2630718,-15016,4856,3760,-301,286,57
22,IDLE,1768044780.1510148,1768044781.2630718,-15116,4652,3716,-357,243,74
22,IDLE,1768044780.1510148,1768044781.2630718,-14988,4580,3948,-298,154,145
22,IDLE,1768044780.1510148,1768044781.2630718,-14772,4456,3872,-289,110,127
22,IDLE,1768044780.1510148,1768044781.2630718,-14852,4412,3824,-147,127,35
22,IDLE,1768044780.1510148,1768044781.2630718,-14856,4564,3756,-139,118,-90
22,IDLE,1768044780.1510148,1768044781.2630718,-14976,4684,3736,-221,165,-128
22,IDLE,1768044780.1510148,1768044781.2630718,-15104,4908,3768,-200,213,-80
22,IDLE,1768044780.1510148,1768044781.2630718,-15172,4912,3740,-102,118,8
22,IDLE,1768044780.1510148,1768044781.2630718,-15076,4844,3896,-219,89,100
22,IDLE,1768044780.1510148,1768044781.2630718,-14924,4644,3864,-322,127,86
22,IDLE,1768044780.1510148,1768044781.2630718,-14844,4536,3796,-288,118,63
22,IDLE,1768044780.1510148,1768044781.2630718,-14844,4452,3788,-141,70,25
22,IDLE,1768044780.1510148,1768044781.2630718,-14712,4596,3744,-178,89,-55
22,IDLE,1768044780.1510148,1768044781.2630718,-14808,4748,3644,-318,184,-106
22,IDLE,1768044780.1510148,1768044781.2630718,-14904,4784,3644,-314,246,-154
22,IDLE,1768044780.1510148,1768044781.2630718,-15040,4848,3692,-394,335,-84
22,IDLE,1768044780.1510148,1768044781.2630718,-15124,4920,3768,-391,315,-7
22,IDLE,1768044780.1510148,1768044781.2630718,-15048,4844,3840,-350,256,63
22,IDLE,1768044780.1510148,1768044781.2630718,-14928,4704,3832,-398,245,140
22,IDLE,1768044780.1510148,1768044781.2630718,-14856,4580,3932,-433,241,105
22,IDLE,1768044780.1510148,1768044781.2630718,-14776,4516,3800,-439,228,27
22,IDLE,1768044780.1510148,1768044781.2630718,-14836,4580,3896,-415,273,-60
22,IDLE,1768044780.1510148,1768044781.2630718,-14980,4704,3832,-404,232,-78
22,IDLE,1768044780.1510148,1768044781.2630718,-15108,4728,3788,-338,201,-41
22,IDLE,1768044780.1510148,1768044781.2630718,-15164,4768,3640,-328,238,-7
22,IDLE,1768044780.1510148,1768044781.2630718,-15092,4816,3704,-431,258,44
22,IDLE,1768044780.1510148,1768044781.2630718,-15024,4740,3728,-519,272,69
22,IDLE,1768044780.1510148,1768044781.2630718,-14884,4492,3852,-553,256,157
22,IDLE,1768044780.1510148,1768044781.2630718,-14816,4320,3812,-418,231,96
22,IDLE,1768044780.1510148,1768044781.2630718,-14732,4452,3704,-442,228,1
22,IDLE,1768044780.1510148,1768044781.2630718,-14840,4528,3788,-479,295,-135
23,IDLE,1768044781.2630718,1768044782.3619552,-15008,4620,3816,-338,287,-113
23,IDLE,1768044781.2630718,1768044782.3619552,-15220,4812,3704,-230,248,-110
23,IDLE,1768044781.2630718,1768044782.3619552,-15260,4928,3792,-357,293,25
23,IDLE,1768044781.2630718,1768044782.3619552,-15204,4836,3876,-381,261,116
23,IDLE,1768044781.2630718,1768044782.3619552,-14984,4660,4016,-300,168,210
23,IDLE,1768044781.2630718,1768044782.3619552,-14832,4372,3936,-272,109,156
23,IDLE,1768044781.2630718,1768044782.3619552,-14796,4352,3912,-320,114,45
23,IDLE,1768044781.2630718,1768044782.3619552,-14816,4484,3820,-337,133,-56
23,IDLE,1768044781.2630718,1768044782.3619552,-14868,4732,3752,-276,229,-168
23,IDLE,1768044781.2630718,1768044782.3619552,-15092,4848,3792,-344,315,-89
23,IDLE,1768044781.2630718,1768044782.3619552,-15228,4856,3880,-287,124,43
23,IDLE,1768044781.2630718,1768044782.3619552,-15144,4736,3816,-258,128,148
23,IDLE,1768044781.2630718,1768044782.3619552,-14976,4788,3728,-229,180,198
23,IDLE,1768044781.2630718,1768044782.3619552,-14760,4628,3824,-324,281,161
23,IDLE,1768044781.2630718,1768044782.3619552,-14748,4460,3836,-357,315,123
23,IDLE,1768044781.2630718,1768044782.3619552,-14752,4428,3972,-404,355,28
23,IDLE,1768044781.2630718,1768044782.3619552,-14868,4572,3820,-532,308,-86
23,IDLE,1768044781.2630718,1768044782.3619552,-15008,4624,3888,-502,261,-41
23,IDLE,1768044781.2630718,1768044782.3619552,-15052,4772,3824,-374,181,9
23,IDLE,1768044781.2630718,1768044782.3619552,-15100,4780,3728,-296,180,106
23,IDLE,1768044781.2630718,1768044782.3619552,-15100,4860,3732,-480,185,157
23,IDLE,1768044781.2630718,1768044782.3619552,-15024,4716,3648,-460,175,186
23,IDLE,1768044781.2630718,1768044782.3619552,-14868,4632,3872,-494,253,197
23,IDLE,1768044781.2630718,1768044782.3619552,-14856,4492,3832,-411,210,199
23,IDLE,1768044781.2630718,1768044782.3619552,-14784,4440,3784,-412,165,98
23,IDLE,1768044781.2630718,1768044782.3619552,-14860,4528,3784,-422,203,19
23,IDLE,1768044781.2630718,1768044782.3619552,-14976,4656,3840,-434,275,-27
23,IDLE,1768044781.2630718,1768044782.3619552,-15132,4636,3924,-349,257,38
23,IDLE,1768044781.2630718,1768044782.3619552,-15188,4684,3808,-246,91,105
23,IDLE,1768044781.2630718,1768044782.3619552,-15116,4748,3752,-413,226,88
23,IDLE,1768044781.2630718,1768044782.3619552,-15068,4564,3996,-508,171,157
23,IDLE,1768044781.2630718,1768044782.3619552,-14900,4432,4000,-353,93,145
23,IDLE,1768044781.2630718,1768044782.3619552,-14796,4388,3996,-319,46,135
23,IDLE,1768044781.2630718,1768044782.3619552,-14844,4396,3896,-390,97,-81
23,IDLE,1768044781.2630718,1768044782.3619552,-14928,4564,3864,-382,70,-125
23,IDLE,1768044781.2630718,1768044782.3619552,-15068,4744,3760,-333,76,-114
23,IDLE,1768044781.2630718,1768044782.3619552,-15088,4812,3780,-261,109,-31
23,IDLE,1768044781.2630718,1768044782.3619552,-15012,4724,3696,-285,34,91
23,IDLE,1768044781.2630718,1768044782.3619552,-14732,4628,3584,-272,60,68
23,IDLE,1768044781.2630718,1768044782.3619552,-14648,4672,3684,-370,181,-10
23,IDLE,1768044781.2630718,1768044782.3619552,-14716,4672,3696,-397,283,-17
23,IDLE,1768044781.2630718,1768044782.3619552,-14740,4748,3692,-361,304,22
23,IDLE,1768044781.2630718,1768044782.3619552,-14876,4812,3684,-371,361,18
23,IDLE,1768044781.2630718,1768044782.3619552,-15008,4784,3800,-395,359,55
23,IDLE,1768044781.2630718,1768044782.3619552,-15104,4852,3828,-319,309,140
23,IDLE,1768044781.2630718,1768044782.3619552,-15148,4808,3832,-112,217,294
23,IDLE,1768044781.2630718,1768044782.3619552,-15052,4664,3796,-111,165,342
23,IDLE,1768044781.2630718,1768044782.3619552,-14868,4544,3940,-258,198,293
23,IDLE,1768044781.2630718,1768044782.3619552,-14784,4440,3988,-360,230,173
23,IDLE,1768044781.2630718,1768044782.3619552,-14792,4344,4004,-307,299,118
24,IDLE,1768044782.3643765,1768044783.4626033,-15004,4256,4168,-199,214,58
24,IDLE,1768044782.3643765,1768044783.4626033,-15040,4424,3964,-43,83,-5
24,IDLE,1768044782.3643765,1768044783.4626033,-15096,4524,3724,-67,98,-68
24,IDLE,1768044782.3643765,1768044783.4626033,-15076,4640,3836,-119,131,-38
24,IDLE,1768044782.3643765,1768044783.4626033,-15060,4580,3736,-16,91,-5
24,IDLE,1768044782.3643765,1768044783.4626033,-15036,4720,3700,-31,205,-11
24,IDLE,1768044782.3643765,1768044783.4626033,-14928,4664,3868,-307,283,-66
24,IDLE,1768044782.3643765,1768044783.4626033,-14840,4572,3904,-324,232,-80
24,IDLE,1768044782.3643765,1768044783.4626033,-14764,4500,3924,-166,145,-107
24,IDLE,1768044782.3643765,1768044783.4626033,-14748,4580,3808,-184,208,-143
24,IDLE,1768044782.3643765,1768044783.4626033,-14880,4652,3872,-243,249,-268
24,IDLE,1768044782.3643765,1768044783.4626033,-14904,4796,3768,-217,282,-268
24,IDLE,1768044782.3643765,1768044783.4626033,-15084,5020,3784,-200,312,-171
24,IDLE,1768044782.3643765,1768044783.4626033,-15072,5036,3768,-268,275,-33
24,IDLE,1768044782.3643765,1768044783.4626033,-15068,4848,3800,-246,233,48
24,IDLE,1768044782.3643765,1768044783.4626033,-14932,4876,3916,-255,205,82
24,IDLE,1768044782.3643765,1768044783.4626033,-14880,4800,3864,-286,246,148
24,IDLE,1768044782.3643765,1768044783.4626033,-14960,4692,3988,-203,197,154
24,IDLE,1768044782.3643765,1768044783.4626033,-14876,4624,4012,-188,133,166
24,IDLE,1768044782.3643765,1768044783.4626033,-14896,4660,3796,-213,106,147
24,IDLE,1768044782.3643765,1768044783.4626033,-14848,4596,3648,-300,183,106
24,IDLE,1768044782.3643765,1768044783.4626033,-14892,4688,3720,-424,261,28
24,IDLE,1768044782.3643765,1768044783.4626033,-14900,4684,3688,-539,348,96
24,IDLE,1768044782.3643765,1768044783.4626033,-14964,4588,3824,-525,384,50
24,IDLE,1768044782.3643765,1768044783.4626033,-14996,4512,3884,-533,376,11
24,IDLE,1768044782.3643765,1768044783.4626033,-14964,4596,3868,-533,283,2
24,IDLE,1768044782.3643765,1768044783.4626033,-14980,4480,3868,-481,306,-4
24,IDLE,1768044782.3643765,1768044783.4626033,-14968,4652,3756,-411,341,11
24,IDLE,1768044782.3643765,1768044783.4626033,-15072,4668,3824,-493,339,21
24,IDLE,1768044782.3643765,1768044783.4626033,-15072,4520,3744,-590,328,-6
24,IDLE,1768044782.3643765,1768044783.4626033,-14940,4484,3632,-630,218,63
24,IDLE,1768044782.3643765,1768044783.4626033,-14932,4556,3776,-662,305,-54
24,IDLE,1768044782.3643765,1768044783.4626033,-14888,4528,3680,-751,499,-76
24,IDLE,1768044782.3643765,1768044783.4626033,-15052,4476,3972,-746,447,-82
24,IDLE,1768044782.3643765,1768044783.4626033,-15112,4464,3904,-618,354,-98
24,IDLE,1768044782.3643765,1768044783.4626033,-15132,4432,4068,-418,238,-73
24,IDLE,1768044782.3643765,1768044783.4626033,-15172,4604,4064,-283,126,-62
24,IDLE,1768044782.3643765,1768044783.4626033,-15140,4688,3904,-174,83,-20
24,IDLE,1768044782.3643765,1768044783.4626033,-14980,4764,3600,-161,112,31
24,IDLE,1768044782.3643765,1768044783.4626033,-14964,4776,3732,-325,133,52
24,IDLE,1768044782.3643765,1768044783.4626033,-14868,4632,3660,-284,103,98
24,IDLE,1768044782.3643765,1768044783.4626033,-14796,4588,3628,-175,133,122
24,IDLE,1768044782.3643765,1768044783.4626033,-14784,4632,3668,-224,158,72
24,IDLE,1768044782.3643765,1768044783.4626033,-14752,4576,3560,-229,246,54
24,IDLE,1768044782.3643765,1768044783.4626033,-14888,4640,3624,-314,364,-30
24,IDLE,1768044782.3643765,1768044783.4626033,-15064,4704,3732,-328,376,29
24,IDLE,1768044782.3643765,1768044783.4626033,-15044,4704,3628,-291,343,97
24,IDLE,1768044782.3643765,1768044783.4626033,-15064,4588,3728,-222,402,198
24,IDLE,1768044782.3643765,1768044783.4626033,-14948,4444,3620,-212,351,230
24,IDLE,1768044782.3643765,1768044783.4626033,-14708,4368,3692,-323,427,120
25,IDLE,1768044783.4632099,1768044784.5603294,-14616,4116,3640,-66,608,115
25,IDLE,1768044783.4632099,1768044784.5603294,-14716,4236,3684,186,614,-37
25,IDLE,1768044783.4632099,1768044784.5603294,-14892,4312,3712,-28,613,-180
25,IDLE,1768044783.4632099,1768044784.5603294,-15024,4528,3700,-100,535,-308
25,IDLE,1768044783.4632099,1768044784.5603294,-15072,4820,3580,-201,520,-272
25,IDLE,1768044783.4632099,1768044784.5603294,-15192,4796,3600,-198,615,-186
25,IDLE,1768044783.4632099,1768044784.5603294,-15240,4692,3724,-94,570,-11
25,IDLE,1768044783.4632099,1768044784.5603294,-15224,4692,3772,68,564,87
25,IDLE,1768044783.4632099,1768044784.5603294,-15304,4836,4008,-84,561,57
25,IDLE,1768044783.4632099,1768044784.5603294,-15332,4660,4044,-225,350,162
25,IDLE,1768044783.4632099,1768044784.5603294,-15196,4572,3940,-62,128,192
25,IDLE,1768044783.4632099,1768044784.5603294,-15168,4584,3872,66,36,227
25,IDLE,1768044783.4632099,1768044784.5603294,-15020,4616,3728,53,-16,226
25,IDLE,1768044783.4632099,1768044784.5603294,-14968,4620,3688,-30,-26,153
25,IDLE,1768044783.4632099,1768044784.5603294,-14968,4640,3504,-118,5,139
25,IDLE,1768044783.4632099,1768044784.5603294,-14892,4708,3472,-146,34,176
25,IDLE,1768044783.4632099,1768044784.5603294,-14884,4668,3432,6,99,219
25,IDLE,1768044783.4632099,1768044784.5603294,-14852,4628,3428,37,176,181
25,IDLE,1768044783.4632099,1768044784.5603294,-14952,4780,3368,-113,279,14
25,IDLE,1768044783.4632099,1768044784.5603294,-14964,4816,3404,-160,297,114
25,IDLE,1768044783.4632099,1768044784.5603294,-14964,4804,3532,-109,317,177
25,IDLE,1768044783.4632099,1768044784.5603294,-14944,4728,3468,-115,313,202
25,IDLE,1768044783.4632099,1768044784.5603294,-15000,4756,3416,-87,374,170
25,IDLE,1768044783.4632099,1768044784.5603294,-15096,4732,3412,-181,388,203
25,IDLE,1768044783.4632099,1768044784.5603294,-15136,4724,3540,-18,343,273
25,IDLE,1768044783.4632099,1768044784.5603294,-15184,4660,3408,87,252,371
25,IDLE,1768044783.4632099,1768044784.5603294,-15284,4624,3332,15,290,311
25,IDLE,1768044783.4632099,1768044784.5603294,-15136,4588,3400,-68,291,235
25,IDLE,1768044783.4632099,1768044784.5603294,-15044,4492,3488,-82,249,226
25,IDLE,1768044783.4632099,1768044784.5603294,-14916,4340,3500,-9,315,174
25,IDLE,1768044783.4632099,1768044784.5603294,-14844,4372,3496,116,359,112
25,IDLE,1768044783.4632099,1768044784.5603294,-14852,4500,3492,83,356,-31
25,IDLE,1768044783.4632099,1768044784.5603294,-14872,4636,3520,41,345,-99
25,IDLE,1768044783.4632099,1768044784.5603294,-15012,4716,3412,114,360,-52
25,IDLE,1768044783.4632099,1768044784.5603294,-15068,4672,3488,306,414,-73
25,IDLE,1768044783.4632099,1768044784.5603294,-15180,4980,3508,267,437,-69
25,IDLE,1768044783.4632099,1768044784.5603294,-15284,4968,3516,-85,232,-14
25,IDLE,1768044783.4632099,1768044784.5603294,-15136,4828,3556,6,94,23
25,IDLE,1768044783.4632099,1768044784.5603294,-15024,4812,3420,33,99,115
25,IDLE,1768044783.4632099,1768044784.5603294,-14936,4920,3272,-22,193,88
25,IDLE,1768044783.4632099,1768044784.5603294,-14928,4896,3292,-141,202,51
25,IDLE,1768044783.4632099,1768044784.5603294,-14960,5048,3444,-398,233,-40
25,IDLE,1768044783.4632099,1768044784.5603294,-15064,5008,3536,-498,213,28
25,IDLE,1768044783.4632099,1768044784.5603294,-15164,4872,3588,-418,65,165
25,IDLE,1768044783.4632099,1768044784.5603294,-15168,4880,3552,-262,51,209
25,IDLE,1768044783.4632099,1768044784.5603294,-15096,4892,3612,-273,34,275
25,IDLE,1768044783.4632099,1768044784.5603294,-15028,4832,3460,-324,35,206
25,IDLE,1768044783.4632099,1768044784.5603294,-14900,4788,3500,-364,46,230
25,IDLE,1768044783.4632099,1768044784.5603294,-14868,4652,3572,-362,58,212
25,IDLE,1768044783.4632099,1768044784.5603294,-14832,4688,3492,-434,58,167
26,IDLE,1768044784.5651543,1768044785.6473384,-14780,4604,3556,-433,55,128
26,IDLE,1768044784.5651543,1768044785.6473384,-14912,4728,3500,-309,114,32
26,IDLE,1768044784.5651543,1768044785.6473384,-15052,4908,3480,-313,118,3
26,IDLE,1768044784.5651543,1768044785.6473384,-15160,5016,3400,-479,62,-5
26,IDLE,1768044784.5651543,1768044785.6473384,-15068,4924,3308,-512,117,107
26,IDLE,1768044784.5651543,1768044785.6473384,-15024,4772,3412,-370,238,228
26,IDLE,1768044784.5651543,1768044785.6473384,-14936,4660,3388,-315,272,133
26,IDLE,1768044784.5651543,1768044785.6473384,-14912,4540,3432,-345,219,49
26,IDLE,1768044784.5651543,1768044785.6473384,-14788,4748,3404,-462,263,-65
26,IDLE,1768044784.5651543,1768044785.6473384,-14892,4760,3404,-585,344,-126
26,IDLE,1768044784.5651543,1768044785.6473384,-15000,4756,3436,-500,293,-60
26,IDLE,1768044784.5651543,1768044785.6473384,-15148,4840,3352,-407,389,27
26,IDLE,1768044784.5651543,1768044785.6473384,-15208,4928,3548,-415,312,45
26,IDLE,1768044784.5651543,1768044785.6473384,-15004,4836,3556,-569,191,58
26,IDLE,1768044784.5651543,1768044785.6473384,-14928,4680,3560,-477,164,67
26,IDLE,1768044784.5651543,1768044785.6473384,-14740,4704,3568,-310,207,46
26,IDLE,1768044784.5651543,1768044785.6473384,-14864,4772,3524,-357,319,-1
26,IDLE,1768044784.5651543,1768044785.6473384,-14960,4972,3580,-510,306,-96
26,IDLE,1768044784.5651543,1768044785.6473384,-15104,5100,3544,-768,255,-156
26,IDLE,1768044784.5651543,1768044785.6473384,-15128,5024,3516,-869,115,-31
26,IDLE,1768044784.5651543,1768044785.6473384,-15136,4940,3492,-833,-9,53
26,IDLE,1768044784.5651543,1768044785.6473384,-15144,4636,3472,-518,68,134
26,IDLE,1768044784.5651543,1768044785.6473384,-15140,4732,3480,-196,171,243
26,IDLE,1768044784.5651543,1768044785.6473384,-15068,4692,3592,-128,110,348
26,IDLE,1768044784.5651543,1768044785.6473384,-15124,4672,3472,-310,35,226
26,IDLE,1768044784.5651543,1768044785.6473384,-14972,4528,3500,-508,-7,138
26,IDLE,1768044784.5651543,1768044785.6473384,-14820,4444,3520,-463,-17,78
26,IDLE,1768044784.5651543,1768044785.6473384,-14772,4548,3460,-301,42,50
26,IDLE,1768044784.5651543,1768044785.6473384,-14776,4596,3456,-350,26,-2
26,IDLE,1768044784.5651543,1768044785.6473384,-14820,4596,3412,-479,116,-126
26,IDLE,1768044784.5651543,1768044785.6473384,-14920,4652,3400,-517,346,-194
26,IDLE,1768044784.5651543,1768044785.6473384,-14996,4756,3540,-416,420,-204
26,IDLE,1768044784.5651543,1768044785.6473384,-15076,4836,3604,-308,318,-162
26,IDLE,1768044784.5651543,1768044785.6473384,-15092,4764,3672,-204,201,-72
26,IDLE,1768044784.5651543,1768044785.6473384,-14984,4916,3584,26,162,66
26,IDLE,1768044784.5651543,1768044785.6473384,-14820,4752,3576,113,278,79
26,IDLE,1768044784.5651543,1768044785.6473384,-14812,4816,3632,92,305,63
26,IDLE,1768044784.5651543,1768044785.6473384,-14908,4756,3652,129,247,121
26,IDLE,1768044784.5651543,1768044785.6473384,-14944,4964,3488,51,128,29
26,IDLE,1768044784.5651543,1768044785.6473384,-14988,5072,3684,-45,437,24
26,IDLE,1768044784.5651543,1768044785.6473384,-15124,5028,3748,-480,360,-65
26,IDLE,1768044784.5651543,1768044785.6473384,-15152,4976,3812,-479,142,28
26,IDLE,1768044784.5651543,1768044785.6473384,-15056,4704,3692,-393,55,122
26,IDLE,1768044784.5651543,1768044785.6473384,-15000,4732,3472,-262,36,126
26,IDLE,1768044784.5651543,1768044785.6473384,-14888,4820,3612,-460,95,28
26,IDLE,1768044784.5651543,1768044785.6473384,-14856,4792,3496,-705,140,-72
26,IDLE,1768044784.5651543,1768044785.6473384,-14960,4736,3460,-604,130,67
26,IDLE,1768044784.5651543,1768044785.6473384,-14920,4688,3384,-429,142,149
26,IDLE,1768044784.5651543,1768044785.6473384,-14912,4708,3360,-430,134,83
26,IDLE,1768044784.5651543,1768044785.6473384,-14972,4684,3336,-546,88,0
27,IDLE,1768044785.6639469,1768044786.7615063,-14908,4632,3392,-460,123,37
27,IDLE,1768044785.6639469,1768044786.7615063,-14972,4756,3440,-353,261,76
27,IDLE,1768044785.6639469,1768044786.7615063,-15012,4784,3476,-396,269,61
27,IDLE,1768044785.6639469,1768044786.7615063,-14980,4664,3592,-425,281,74
27,IDLE,1768044785.6639469,1768044786.7615063,-15040,4516,3544,-320,238,80
27,IDLE,1768044785.6639469,1768044786.7615063,-15004,4588,3592,-177,208,43
27,IDLE,1768044785.6639469,1768044786.7615063,-14904,4648,3504,-203,129,-26
27,IDLE,1768044785.6639469,1768044786.7615063,-14768,4612,3420,-172,242,33
27,IDLE,1768044785.6639469,1768044786.7615063,-14772,4704,3432,-211,376,-63
27,IDLE,1768044785.6639469,1768044786.7615063,-14788,4724,3336,-286,452,-139
27,IDLE,1768044785.6639469,1768044786.7615063,-14864,4800,3564,-331,503,-153
27,IDLE,1768044785.6639469,1768044786.7615063,-15008,4816,3600,-324,490,-205
27,IDLE,1768044785.6639469,1768044786.7615063,-15208,4872,3488,-223,424,-143
27,IDLE,1768044785.6639469,1768044786.7615063,-15148,5040,3432,-201,375,-69
27,IDLE,1768044785.6639469,1768044786.7615063,-15352,5120,3432,-299,572,-31
27,IDLE,1768044785.6639469,1768044786.7615063,-15252,5048,3572,-417,546,140
27,IDLE,1768044785.6639469,1768044786.7615063,-15120,4908,3644,-489,354,249
27,IDLE,1768044785.6639469,1768044786.7615063,-14952,4688,3548,-540,281,284
27,IDLE,1768044785.6639469,1768044786.7615063,-14792,4440,3632,-432,233,182
27,IDLE,1768044785.6639469,1768044786.7615063,-14732,4420,3536,-423,383,30
27,IDLE,1768044785.6639469,1768044786.7615063,-14864,4528,3588,-398,462,-89
27,IDLE,1768044785.6639469,1768044786.7615063,-15060,4668,3628,-395,288,-42
27,IDLE,1768044785.6639469,1768044786.7615063,-15088,4676,3424,-232,211,49
27,IDLE,1768044785.6639469,1768044786.7615063,-15104,4792,3348,-156,310,80
27,IDLE,1768044785.6639469,1768044786.7615063,-15000,4720,3380,-365,358,53
27,IDLE,1768044785.6639469,1768044786.7615063,-14912,4600,3392,-353,366,21
27,IDLE,1768044785.6639469,1768044786.7615063,-14828,4532,3464,-321,407,-11
27,IDLE,1768044785.6639469,1768044786.7615063,-14880,4588,3388,-362,382,-38
27,IDLE,1768044785.6639469,1768044786.7615063,-14948,4544,3348,-306,437,-62
27,IDLE,1768044785.6639469,1768044786.7615063,-14964,4680,3292,-386,452,-173
27,IDLE,1768044785.6639469,1768044786.7615063,-15196,4820,3312,-409,526,-126
27,IDLE,1768044785.6639469,1768044786.7615063,-15340,4792,3456,-366,467,-76
27,IDLE,1768044785.6639469,1768044786.7615063,-15452,4828,3552,-353,416,68
27,IDLE,1768044785.6639469,1768044786.7615063,-15300,4768,3512,-241,274,148
27,IDLE,1768044785.6639469,1768044786.7615063,-15068,4636,3464,-165,166,132
27,IDLE,1768044785.6639469,1768044786.7615063,-14884,4568,3364,-295,243,78
27,IDLE,1768044785.6639469,1768044786.7615063,-14784,4516,3432,-302,241,25
27,IDLE,1768044785.6639469,1768044786.7615063,-14848,4584,3356,-214,315,-69
27,IDLE,1768044785.6639469,1768044786.7615063,-14988,4768,3340,-357,392,-183
27,IDLE,1768044785.6639469,1768044786.7615063,-15072,4832,3464,-505,352,-132
27,IDLE,1768044785.6639469,1768044786.7615063,-15212,4848,3516,-337,275,-76
27,IDLE,1768044785.6639469,1768044786.7615063,-15224,4864,3544,-222,277,53
27,IDLE,1768044785.6639469,1768044786.7615063,-15292,4812,3456,-172,205,172
27,IDLE,1768044785.6639469,1768044786.7615063,-15200,4808,3440,-111,83,191
27,IDLE,1768044785.6639469,1768044786.7615063,-15060,4840,3332,-143,19,174
27,IDLE,1768044785.6639469,1768044786.7615063,-14972,4648,3208,-98,106,186
27,IDLE,1768044785.6639469,1768044786.7615063,-14960,4660,3296,-72,67,221
27,IDLE,1768044785.6639469,1768044786.7615063,-14900,4648,3172,-141,126,97
27,IDLE,1768044785.6639469,1768044786.7615063,-14836,4672,3188,-295,188,87
27,IDLE,1768044785.6639469,1768044786.7615063,-14872,4644,3120,-246,297,67
28,IDLE,1768044786.7615063,1768044787.848836,-14980,4688,3276,-255,409,48
28,IDLE,1768044786.7615063,1768044787.848836,-15116,4704,3252,-351,409,22
28,IDLE,1768044786.7615063,1768044787.848836,-15236,4792,3376,-402,318,18
28,IDLE,1768044786.7615063,1768044787.848836,-15292,4744,3412,-275,199,130
28,IDLE,1768044786.7615063,1768044787.848836,-15176,4708,3472,-220,162,123
28,IDLE,1768044786.7615063,1768044787.848836,-15004,4660,3384,-276,165,125
28,IDLE,1768044786.7615063,1768044787.848836,-14960,4576,3436,-391,234,120
28,IDLE,1768044786.7615063,1768044787.848836,-14852,4528,3268,-315,247,44
28,IDLE,1768044786.7615063,1768044787.848836,-14964,4620,3204,-264,294,-56
28,IDLE,1768044786.7615063,1768044787.848836,-15064,4696,3384,-441,317,-82
28,IDLE,1768044786.7615063,1768044787.848836,-15168,4780,3364,-434,253,-65
28,IDLE,1768044786.7615063,1768044787.848836,-15260,4824,3436,-320,181,-26
28,IDLE,1768044786.7615063,1768044787.848836,-15328,4864,3428,-289,132,91
28,IDLE,1768044786.7615063,1768044787.848836,-15276,4836,3436,-323,201,166
28,IDLE,1768044786.7615063,1768044787.848836,-15108,4656,3524,-221,75,254
28,IDLE,1768044786.7615063,1768044787.848836,-14968,4544,3520,-169,36,232
28,IDLE,1768044786.7615063,1768044787.848836,-14860,4600,3376,-293,-4,130
28,IDLE,1768044786.7615063,1768044787.848836,-14844,4556,3268,-314,19,29
28,IDLE,1768044786.7615063,1768044787.848836,-14916,4628,3256,-329,160,7
28,IDLE,1768044786.7615063,1768044787.848836,-15044,4676,3212,-350,203,-57
28,IDLE,1768044786.7615063,1768044787.848836,-15104,4816,3336,-466,182,-38
28,IDLE,1768044786.7615063,1768044787.848836,-15116,4820,3248,-437,185,14
28,IDLE,1768044786.7615063,1768044787.848836,-15200,4792,3308,-322,128,87
28,IDLE,1768044786.7615063,1768044787.848836,-15164,4860,3356,-261,172,158
28,IDLE,1768044786.7615063,1768044787.848836,-15004,4728,3352,-297,81,186
28,IDLE,1768044786.7615063,1768044787.848836,-14952,4572,3464,-296,48,244
28,IDLE,1768044786.7615063,1768044787.848836,-14836,4516,3288,-230,12,163
28,IDLE,1768044786.7615063,1768044787.848836,-14860,4620,3228,-241,114,93
28,IDLE,1768044786.7615063,1768044787.848836,-14936,4668,3196,-306,111,39
28,IDLE,1768044786.7615063,1768044787.848836,-14968,4716,3276,-283,180,-12
28,IDLE,1768044786.7615063,1768044787.848836,-15104,4808,3292,-356,249,-9
28,IDLE,1768044786.7615063,1768044787.848836,-15216,4760,3332,-354,207,41
28,IDLE,1768044786.7615063,1768044787.848836,-15080,4780,3436,-247,148,153
28,IDLE,1768044786.7615063,1768044787.848836,-15096,4744,3416,-312,225,185
28,IDLE,1768044786.7615063,1768044787.848836,-14960,4616,3464,-314,162,134
28,IDLE,1768044786.7615063,1768044787.848836,-14948,4488,3468,-275,138,100
28,IDLE,1768044786.7615063,1768044787.848836,-14956,4620,3428,-250,172,-26
28,IDLE,1768044786.7615063,1768044787.848836,-15012,4604,3376,-287,260,-47
28,IDLE,1768044786.7615063,1768044787.848836,-15036,4732,3444,-391,201,-31
28,IDLE,1768044786.7615063,1768044787.848836,-15084,4780,3564,-322,158,-18
28,IDLE,1768044786.7615063,1768044787.848836,-15140,4820,3616,-343,211,12
28,IDLE,1768044786.7615063,1768044787.848836,-15204,4812,3540,-394,136,-42
28,IDLE,1768044786.7615063,1768044787.848836,-15096,4776,3560,-381,135,66
28,IDLE,1768044786.7615063,1768044787.848836,-14816,4588,3420,-319,24,73
28,IDLE,1768044786.7615063,1768044787.848836,-14780,4588,3356,-326,78,25
28,IDLE,1768044786.7615063,1768044787.848836,-14748,4692,3184,-496,261,-162
28,IDLE,1768044786.7615063,1768044787.848836,-14892,4940,3352,-698,355,-248
28,IDLE,1768044786.7615063,1768044787.848836,-15184,4944,3524,-621,334,-144
28,IDLE,1768044786.7615063,1768044787.848836,-15260,5040,3592,-392,162,87
28,IDLE,1768044786.7615063,1768044787.848836,-15232,4956,3580,-376,115,168
29,IDLE,1768044787.848836,1768044788.9624283,-15128,4816,3576,-436,39,213
29,IDLE,1768044787.848836,1768044788.9624283,-14976,4656,3624,-402,-28,214
29,IDLE,1768044787.848836,1768044788.9624283,-14852,4552,3532,-245,25,208
29,IDLE,1768044787.848836,1768044788.9624283,-14856,4636,3492,-279,23,146
29,IDLE,1768044787.848836,1768044788.9624283,-14956,4676,3504,-457,67,56
29,IDLE,1768044787.848836,1768044788.9624283,-15072,4648,3556,-378,58,23
29,IDLE,1768044787.848836,1768044788.9624283,-15104,4836,3444,-313,55,58
29,IDLE,1768044787.848836,1768044788.9624283,-15108,4868,3536,-416,110,177
29,IDLE,1768044787.848836,1768044788.9624283,-15064,4664,3556,-313,16,230
29,IDLE,1768044787.848836,1768044788.9624283,-14792,4492,3388,-267,-36,244
29,IDLE,1768044787.848836,1768044788.9624283,-14652,4484,3216,-342,190,59
29,IDLE,1768044787.848836,1768044788.9624283,-14752,4428,3324,-566,401,-142
29,IDLE,1768044787.848836,1768044788.9624283,-14968,4564,3612,-639,375,-181
29,IDLE,1768044787.848836,1768044788.9624283,-15112,4716,3688,-539,290,-148
29,IDLE,1768044787.848836,1768044788.9624283,-15188,4624,3620,-232,167,42
29,IDLE,1768044787.848836,1768044788.9624283,-15236,4860,3516,-112,146,74
29,IDLE,1768044787.848836,1768044788.9624283,-15156,4956,3484,-430,127,9
29,IDLE,1768044787.848836,1768044788.9624283,-15048,4768,3444,-528,201,50
29,IDLE,1768044787.848836,1768044788.9624283,-14896,4672,3428,-316,163,135
29,IDLE,1768044787.848836,1768044788.9624283,-14856,4748,3508,-326,224,72
29,IDLE,1768044787.848836,1768044788.9624283,-14920,4668,3432,-472,185,22
29,IDLE,1768044787.848836,1768044788.9624283,-14840,4688,3352,-443,205,21
29,IDLE,1768044787.848836,1768044788.9624283,-14956,4728,3536,-341,279,30
29,IDLE,1768044787.848836,1768044788.9624283,-15080,4768,3552,-365,275,24
29,IDLE,1768044787.848836,1768044788.9624283,-15036,4772,3468,-398,188,68
29,IDLE,1768044787.848836,1768044788.9624283,-14984,4688,3392,-337,220,86
29,IDLE,1768044787.848836,1768044788.9624283,-14960,4704,3532,-323,337,97
29,IDLE,1768044787.848836,1768044788.9624283,-14904,4632,3512,-453,359,20
29,IDLE,1768044787.848836,1768044788.9624283,-14816,4628,3628,-563,414,-40
29,IDLE,1768044787.848836,1768044788.9624283,-14908,4704,3632,-443,375,-67
29,IDLE,1768044787.848836,1768044788.9624283,-14956,4780,3696,-442,316,23
29,IDLE,1768044787.848836,1768044788.9624283,-15000,4680,3584,-355,270,1
29,IDLE,1768044787.848836,1768044788.9624283,-15100,4704,3568,-181,162,19
29,IDLE,1768044787.848836,1768044788.9624283,-15028,4920,3316,-141,147,53
29,IDLE,1768044787.848836,1768044788.9624283,-15068,4980,3364,-285,339,109
29,IDLE,1768044787.848836,1768044788.9624283,-14964,4840,3500,-388,332,194
29,IDLE,1768044787.848836,1768044788.9624283,-14940,4712,3596,-409,192,218
29,IDLE,1768044787.848836,1768044788.9624283,-14840,4532,3700,-340,179,195
29,IDLE,1768044787.848836,1768044788.9624283,-14860,4420,3580,-158,139,97
29,IDLE,1768044787.848836,1768044788.9624283,-14984,4672,3452,5,76,64
29,IDLE,1768044787.848836,1768044788.9624283,-15028,4860,3248,13,119,101
29,IDLE,1768044787.848836,1768044788.9624283,-15128,4856,3316,-51,160,86
29,IDLE,1768044787.848836,1768044788.9624283,-15096,4804,3224,-82,198,160
29,IDLE,1768044787.848836,1768044788.9624283,-15052,4788,3292,-139,292,173
29,IDLE,1768044787.848836,1768044788.9624283,-14944,4780,3412,-323,392,132
29,IDLE,1768044787.848836,1768044788.9624283,-14940,4636,3432,-347,416,99
29,IDLE,1768044787.848836,1768044788.9624283,-14892,4564,3732,-296,324,83
29,IDLE,1768044787.848836,1768044788.9624283,-14816,4568,3712,-266,336,-3
29,IDLE,1768044787.848836,1768044788.9624283,-14900,4624,3576,-229,313,-96
29,IDLE,1768044787.848836,1768044788.9624283,-14968,4776,3524,-163,399,-132
30,IDLE,1768044788.9624283,1768044790.052717,-15164,5068,3488,-166,357,-101
30,IDLE,1768044788.9624283,1768044790.052717,-15268,5032,3592,-290,246,-53
30,IDLE,1768044788.9624283,1768044790.052717,-15268,4884,3464,-169,184,147
30,IDLE,1768044788.9624283,1768044790.052717,-15076,4936,3488,-137,147,194
30,IDLE,1768044788.9624283,1768044790.052717,-14916,4684,3384,-173,171,198
30,IDLE,1768044788.9624283,1768044790.052717,-14876,4616,3472,-166,105,172
30,IDLE,1768044788.9624283,1768044790.052717,-14820,4556,3288,-36,126,56
30,IDLE,1768044788.9624283,1768044790.052717,-14832,4832,3280,-211,273,-80
30,IDLE,1768044788.9624283,1768044790.052717,-15032,4880,3388,-313,347,-82
30,IDLE,1768044788.9624283,1768044790.052717,-15188,4952,3476,-175,264,27
30,IDLE,1768044788.9624283,1768044790.052717,-15104,4816,3488,-115,203,137
30,IDLE,1768044788.9624283,1768044790.052717,-15108,4828,3428,-194,162,154
30,IDLE,1768044788.9624283,1768044790.052717,-14952,4724,3284,-208,171,89
30,IDLE,1768044788.9624283,1768044790.052717,-14888,4740,3492,-235,219,112
30,IDLE,1768044788.9624283,1768044790.052717,-14896,4756,3528,-233,256,87
30,IDLE,1768044788.9624283,1768044790.052717,-14964,4692,3356,-164,159,85
30,IDLE,1768044788.9624283,1768044790.052717,-14940,4744,3336,-118,152,0
30,IDLE,1768044788.9624283,1768044790.052717,-15020,4896,3284,-178,153,9
30,IDLE,1768044788.9624283,1768044790.052717,-15072,4956,3320,-174,229,85
30,IDLE,1768044788.9624283,1768044790.052717,-15168,4876,3364,-173,240,153
30,IDLE,1768044788.9624283,1768044790.052717,-15120,4928,3376,-175,237,204
30,IDLE,1768044788.9624283,1768044790.052717,-15016,4736,3300,-333,243,192
30,IDLE,1768044788.9624283,1768044790.052717,-14836,4704,3292,-344,278,124
30,IDLE,1768044788.9624283,1768044790.052717,-14812,4692,3488,-317,352,69
30,IDLE,1768044788.9624283,1768044790.052717,-14948,4708,3544,-400,356,50
30,IDLE,1768044788.9624283,1768044790.052717,-15040,4680,3452,-313,215,6
30,IDLE,1768044788.9624283,1768044790.052717,-15084,4812,3396,-276,156,52
30,IDLE,1768044788.9624283,1768044790.052717,-15120,4764,3380,-258,189,50
30,IDLE,1768044788.9624283,1768044790.052717,-15128,4792,3312,-180,220,89
30,IDLE,1768044788.9624283,1768044790.052717,-15076,4684,3256,-164,193,139
30,IDLE,1768044788.9624283,1768044790.052717,-14972,4760,3300,-386,244,2
30,IDLE,1768044788.9624283,1768044790.052717,-14880,4708,3412,-507,296,19
30,IDLE,1768044788.9624283,1768044790.052717,-14868,4552,3500,-348,236,-13
30,IDLE,1768044788.9624283,1768044790.052717,-14896,4548,3396,-308,255,-11
30,IDLE,1768044788.9624283,1768044790.052717,-14932,4676,3388,-376,288,-181
30,IDLE,1768044788.9624283,1768044790.052717,-15104,4824,3380,-430,263,-180
30,IDLE,1768044788.9624283,1768044790.052717,-15212,4836,3404,-233,238,-45
30,IDLE,1768044788.9624283,1768044790.052717,-15208,4936,3424,-172,196,57
30,IDLE,1768044788.9624283,1768044790.052717,-15068,4904,3348,-262,167,159
30,IDLE,1768044788.9624283,1768044790.052717,-14792,4676,3256,-329,211,71
30,IDLE,1768044788.9624283,1768044790.052717,-14696,4656,3312,-299,307,30
30,IDLE,1768044788.9624283,1768044790.052717,-14788,4740,3360,-304,340,-61
30,IDLE,1768044788.9624283,1768044790.052717,-14904,4860,3372,-433,375,-137
30,IDLE,1768044788.9624283,1768044790.052717,-15112,4916,3448,-430,355,-114
30,IDLE,1768044788.9624283,1768044790.052717,-15304,4960,3436,-346,246,-2
30,IDLE,1768044788.9624283,1768044790.052717,-15328,4972,3388,-242,223,98
30,IDLE,1768044788.9624283,1768044790.052717,-15244,5020,3328,-287,196,211
30,IDLE,1768044788.9624283,1768044790.052717,-15016,4784,3424,-404,122,266
30,IDLE,1768044788.9624283,1768044790.052717,-14808,4552,3460,-388,168,220
30,IDLE,1768044788.9624283,1768044790.052717,-14744,4580,3320,-287,194,71
31,IDLE,1768044790.0632465,1768044791.1605313,-14876,4644,3420,-416,275,-35
31,IDLE,1768044790.0632465,1768044791.1605313,-15020,4768,3452,-416,289,-87
31,IDLE,1768044790.0632465,1768044791.1605313,-15196,4716,3400,-235,129,62
31,IDLE,1768044790.0632465,1768044791.1605313,-15172,4956,3164,-194,173,60
31,IDLE,1768044790.0632465,1768044791.1605313,-15036,4956,3128,-440,282,91
31,IDLE,1768044790.0632465,1768044791.1605313,-14992,4752,3368,-501,313,73
31,IDLE,1768044790.0632465,1768044791.1605313,-14928,4712,3452,-459,260,133
31,IDLE,1768044790.0632465,1768044791.1605313,-14908,4580,3476,-420,229,92
31,IDLE,1768044790.0632465,1768044791.1605313,-14996,4644,3548,-369,196,-42
31,IDLE,1768044790.0632465,1768044791.1605313,-15100,4756,3512,-368,166,-46
31,IDLE,1768044790.0632465,1768044791.1605313,-15136,4924,3448,-248,98,57
31,IDLE,1768044790.0632465,1768044791.1605313,-15156,4908,3288,-149,91,113
31,IDLE,1768044790.0632465,1768044791.1605313,-15040,4824,3296,-266,176,204
31,IDLE,1768044790.0632465,1768044791.1605313,-14960,4744,3320,-370,178,152
31,IDLE,1768044790.0632465,1768044791.1605313,-14852,4604,3316,-377,147,99
31,IDLE,1768044790.0632465,1768044791.1605313,-14800,4580,3320,-350,234,16
31,IDLE,1768044790.0632465,1768044791.1605313,-14768,4620,3256,-321,295,-37
31,IDLE,1768044790.0632465,1768044791.1605313,-15012,4856,3344,-387,260,-127
31,IDLE,1768044790.0632465,1768044791.1605313,-15092,4928,3360,-438,255,-55
31,IDLE,1768044790.0632465,1768044791.1605313,-15060,4944,3252,-262,254,71
31,IDLE,1768044790.0632465,1768044791.1605313,-15144,4956,3208,-223,333,162
31,IDLE,1768044790.0632465,1768044791.1605313,-14992,4788,3288,-376,374,116
31,IDLE,1768044790.0632465,1768044791.1605313,-14968,4644,3424,-493,400,116
31,IDLE,1768044790.0632465,1768044791.1605313,-14968,4668,3496,-385,299,79
31,IDLE,1768044790.0632465,1768044791.1605313,-14904,4636,3404,-361,318,14
31,IDLE,1768044790.0632465,1768044791.1605313,-14892,4600,3408,-407,271,-25
31,IDLE,1768044790.0632465,1768044791.1605313,-14964,4696,3332,-380,236,-57
31,IDLE,1768044790.0632465,1768044791.1605313,-15068,4792,3324,-451,288,-122
31,IDLE,1768044790.0632465,1768044791.1605313,-15268,4972,3420,-483,349,-74
31,IDLE,1768044790.0632465,1768044791.1605313,-15324,4948,3576,-413,189,44
31,IDLE,1768044790.0632465,1768044791.1605313,-15252,4868,3584,-317,128,189
31,IDLE,1768044790.0632465,1768044791.1605313,-15120,4672,3480,-345,65,192
31,IDLE,1768044790.0632465,1768044791.1605313,-14972,4536,3396,-403,0,159
31,IDLE,1768044790.0632465,1768044791.1605313,-14768,4484,3352,-437,63,24
31,IDLE,1768044790.0632465,1768044791.1605313,-14844,4656,3348,-398,114,-85
31,IDLE,1768044790.0632465,1768044791.1605313,-14888,4740,3244,-566,63,-57
31,IDLE,1768044790.0632465,1768044791.1605313,-15004,4824,3192,-534,154,-41
31,IDLE,1768044790.0632465,1768044791.1605313,-15080,4944,3272,-530,213,-48
31,IDLE,1768044790.0632465,1768044791.1605313,-15204,5000,3312,-568,177,34
31,IDLE,1768044790.0632465,1768044791.1605313,-15160,4916,3268,-507,168,138
31,IDLE,1768044790.0632465,1768044791.1605313,-15080,4772,3368,-363,142,272
31,IDLE,1768044790.0632465,1768044791.1605313,-14976,4704,3296,-369,106,238
31,IDLE,1768044790.0632465,1768044791.1605313,-14896,4624,3392,-517,170,146
31,IDLE,1768044790.0632465,1768044791.1605313,-14884,4536,3432,-537,271,101
31,IDLE,1768044790.0632465,1768044791.1605313,-14960,4528,3376,-432,281,36
31,IDLE,1768044790.0632465,1768044791.1605313,-15012,4656,3540,-404,241,36
31,IDLE,1768044790.0632465,1768044791.1605313,-15108,4700,3552,-476,210,-54
31,IDLE,1768044790.0632465,1768044791.1605313,-15152,4720,3612,-542,202,-1
31,IDLE,1768044790.0632465,1768044791.1605313,-15200,4620,3468,-335,119,46
