Timestamp,Flex1,Flex2,Flex3,Flex4,AccX,AccY,AccZ,GyroX,GyroY,GyroZ
20:02:47,0.483,0.272,0.048,0.963,0.128,0.058,1.021,0.0,0.004,-0.0
20:02:47,0.483,0.273,0.048,0.963,0.129,0.058,1.021,0.001,0.002,0.002
20:02:47,0.487,0.273,0.048,0.964,0.128,0.058,1.022,0.003,-0.0,0.004
20:02:47,0.486,0.272,0.048,0.964,0.127,0.058,1.021,0.001,0.0,0.001
20:02:47,0.485,0.274,0.048,0.963,0.127,0.056,1.023,-0.005,-0.002,-0.004
20:02:47,0.487,0.273,0.049,0.963,0.127,0.056,1.023,-0.001,-0.004,-0.003
20:02:47,0.488,0.274,0.048,0.963,0.127,0.057,1.022,0.004,-0.003,-0.004
20:02:47,0.486,0.273,0.048,0.963,0.127,0.058,1.022,0.001,-0.005,-0.004
20:02:47,0.484,0.273,0.048,0.963,0.127,0.058,1.021,0.001,-0.005,-0.009
20:02:47,0.484,0.272,0.048,0.963,0.128,0.058,1.021,0.003,-0.004,-0.009
20:02:47,0.487,0.275,0.049,0.962,0.127,0.058,1.021,0.005,-0.001,-0.007
20:02:47,0.486,0.274,0.049,0.962,0.127,0.057,1.022,0.008,-0.002,-0.004
20:02:47,0.473,0.272,0.049,0.955,0.131,0.066,1.052,-0.001,-0.084,0.005
20:02:47,0.476,0.272,0.049,0.939,0.131,0.066,1.074,-0.01,-0.186,0.008
20:02:47,0.471,0.271,0.049,0.889,0.13,0.067,1.089,-0.013,-0.216,0.006
20:02:47,0.476,0.271,0.048,0.863,0.13,0.068,1.096,-0.028,-0.165,0.003
20:02:47,0.481,0.27,0.048,0.845,0.13,0.067,1.097,-0.051,-0.101,0.003
20:02:47,0.481,0.27,0.048,0.832,0.129,0.065,1.089,-0.055,-0.05,0.002
20:02:47,0.484,0.272,0.048,0.871,0.129,0.064,1.075,-0.053,-0.02,0.001
20:02:47,0.478,0.272,0.048,0.899,0.129,0.063,1.061,-0.053,-0.013,0.001
20:02:48,0.48,0.272,0.048,0.918,0.129,0.062,1.05,-0.042,-0.017,0.002
20:02:48,0.483,0.272,0.048,0.931,0.129,0.06,1.038,-0.033,-0.016,0.003
20:02:48,0.483,0.272,0.048,0.941,0.128,0.059,1.032,-0.024,-0.013,0.003
20:02:48,0.475,0.271,0.048,0.948,0.129,0.058,1.028,-0.018,-0.013,0.0
20:02:48,0.476,0.271,0.048,0.953,0.128,0.058,1.025,-0.014,-0.008,0.003
20:02:48,0.478,0.27,0.048,0.956,0.127,0.058,1.022,-0.005,-0.004,0.001
20:02:48,0.48,0.27,0.048,0.958,0.127,0.057,1.019,0.001,0.001,-0.003
20:02:48,0.481,0.271,0.048,0.96,0.126,0.057,1.02,0.002,0.002,0.001
20:02:48,0.474,0.271,0.048,0.961,0.126,0.058,1.021,0.004,0.005,0.002
20:02:48,0.469,0.27,0.048,0.961,0.126,0.058,1.021,0.004,0.006,0.005
20:02:48,0.473,0.27,0.048,0.962,0.127,0.057,1.022,0.008,0.005,0.003
20:02:48,0.476,0.267,0.048,0.961,0.127,0.057,1.022,0.004,0.007,0.002
20:02:48,0.474,0.269,0.048,0.961,0.127,0.058,1.023,0.001,0.008,-0.0
20:02:48,0.479,0.268,0.048,0.962,0.127,0.058,1.022,-0.0,0.007,-0.003
20:02:48,0.478,0.266,0.047,0.962,0.126,0.058,1.022,0.005,0.004,0.003
20:02:48,0.478,0.268,0.047,0.962,0.127,0.058,1.022,0.002,0.004,0.006
20:02:48,0.482,0.269,0.047,0.963,0.127,0.057,1.022,0.004,0.003,0.003
20:02:48,0.482,0.268,0.047,0.962,0.128,0.059,1.022,0.0,-0.0,-0.002
20:02:48,0.481,0.267,0.047,0.962,0.127,0.058,1.022,-0.004,-0.0,-0.005
20:02:48,0.479,0.264,0.047,0.962,0.127,0.059,1.023,-0.002,-0.002,-0.005
20:02:48,0.481,0.265,0.047,0.962,0.128,0.058,1.023,-0.002,-0.007,-0.005
20:02:48,0.476,0.264,0.048,0.963,0.128,0.058,1.022,0.002,-0.001,-0.003
20:02:49,0.476,0.266,0.048,0.963,0.127,0.058,1.022,0.002,-0.008,0.001
20:02:49,0.444,0.259,0.045,0.963,0.128,0.058,1.023,0.001,-0.003,0.004
20:02:49,0.452,0.259,0.045,0.962,0.128,0.059,1.023,-0.004,-0.005,0.005
20:02:49,0.46,0.263,0.046,0.962,0.128,0.058,1.022,-0.005,-0.002,0.003
20:02:49,0.465,0.264,0.046,0.963,0.128,0.058,1.022,-0.001,-0.001,0.001
20:02:49,0.468,0.266,0.047,0.963,0.127,0.056,1.022,-0.009,0.002,-0.001
20:02:49,0.473,0.268,0.047,0.963,0.129,0.056,1.022,-0.011,-0.01,-0.0
20:02:49,0.472,0.263,0.047,0.962,0.128,0.056,1.022,-0.011,-0.007,-0.0
20:02:49,0.481,0.268,0.047,0.963,0.129,0.057,1.022,-0.013,-0.009,0.003
20:02:49,0.486,0.271,0.047,0.962,0.128,0.058,1.023,-0.016,-0.008,0.005
20:02:49,0.481,0.271,0.048,0.963,0.127,0.059,1.026,-0.013,-0.001,0.003
20:02:49,0.478,0.245,0.046,0.963,0.127,0.059,1.024,-0.012,0.001,0.005
20:02:49,0.48,0.253,0.046,0.962,0.128,0.06,1.024,-0.006,0.004,-0.001
20:02:49,0.481,0.257,0.047,0.962,0.128,0.059,1.024,-0.007,0.002,0.0
20:02:49,0.484,0.26,0.047,0.962,0.128,0.059,1.022,-0.003,-0.003,-0.003
20:02:49,0.484,0.263,0.047,0.962,0.128,0.058,1.023,0.002,-0.005,-0.003
20:02:49,0.48,0.264,0.048,0.962,0.128,0.059,1.025,-0.001,-0.005,-0.002
20:02:49,0.485,0.268,0.048,0.961,0.128,0.058,1.024,-0.001,-0.007,-0.0
20:02:49,0.482,0.267,0.048,0.961,0.129,0.059,1.025,-0.002,-0.005,-0.005
20:02:49,0.481,0.267,0.048,0.962,0.129,0.057,1.024,-0.002,-0.008,-0.006
20:02:49,0.482,0.268,0.048,0.962,0.128,0.057,1.026,-0.006,-0.012,-0.003
20:02:49,0.48,0.269,0.048,0.962,0.128,0.058,1.025,-0.003,-0.012,-0.001
20:02:50,0.481,0.27,0.048,0.963,0.128,0.057,1.024,0.002,-0.013,0.002
20:02:50,0.474,0.269,0.048,0.963,0.128,0.057,1.025,0.001,-0.012,-0.001
20:02:50,0.477,0.27,0.048,0.963,0.127,0.057,1.022,-0.002,-0.006,0.001
20:02:50,0.479,0.27,0.048,0.963,0.128,0.057,1.022,-0.01,-0.007,0.004
20:02:50,0.472,0.267,0.044,0.962,0.128,0.057,1.022,-0.001,-0.007,0.001
20:02:50,0.474,0.267,0.045,0.962,0.128,0.057,1.022,-0.003,-0.003,-0.004
20:02:50,0.469,0.261,0.043,0.963,0.128,0.057,1.02,-0.004,-0.002,-0.006
20:02:50,0.475,0.264,0.045,0.963,0.128,0.059,1.02,0.003,-0.001,-0.009
20:02:50,0.476,0.262,0.045,0.963,0.129,0.058,1.021,-0.001,0.002,-0.006
20:02:50,0.468,0.265,0.046,0.962,0.128,0.058,1.02,0.001,0.001,-0.007
20:02:50,0.475,0.267,0.047,0.957,0.127,0.057,1.021,0.002,0.005,-0.004
20:02:50,0.475,0.268,0.047,0.959,0.127,0.057,1.021,0.007,-0.0,-0.002
20:02:50,0.478,0.269,0.047,0.96,0.127,0.057,1.023,0.003,-0.0,-0.001
20:02:50,0.481,0.27,0.048,0.961,0.126,0.057,1.023,0.0,-0.004,0.004
20:02:50,0.484,0.269,0.048,0.962,0.126,0.057,1.024,-0.001,-0.005,-0.001
20:02:50,0.484,0.266,0.048,0.963,0.126,0.057,1.024,-0.003,-0.004,0.005
20:02:50,0.484,0.266,0.048,0.963,0.127,0.057,1.024,-0.003,-0.004,0.006
20:02:50,0.484,0.268,0.048,0.964,0.127,0.057,1.024,-0.008,0.0,0.003
20:02:50,0.484,0.269,0.048,0.964,0.127,0.059,1.026,-0.007,-0.005,0.0
20:02:50,0.466,0.264,0.048,0.964,0.128,0.058,1.024,-0.001,-0.001,0.001
20:02:50,0.473,0.264,0.048,0.964,0.128,0.059,1.024,-0.003,0.002,0.002
20:02:50,0.476,0.267,0.048,0.964,0.127,0.057,1.023,0.0,-0.004,0.003
20:02:51,0.484,0.263,0.048,0.962,0.128,0.057,1.023,0.0,0.0,0.0
20:02:51,0.48,0.266,0.048,0.963,0.127,0.057,1.022,0.003,0.002,-0.001
20:02:51,0.473,0.266,0.048,0.963,0.127,0.058,1.021,0.003,0.003,-0.006
20:02:51,0.47,0.268,0.048,0.963,0.127,0.058,1.021,0.0,0.007,-0.002
20:02:51,0.476,0.269,0.048,0.962,0.127,0.058,1.021,0.004,0.006,0.002
20:02:51,0.478,0.271,0.048,0.963,0.128,0.057,1.021,-0.002,0.009,-0.001
20:02:51,0.482,0.271,0.048,0.963,0.128,0.058,1.02,-0.0,0.006,-0.002
20:02:51,0.482,0.271,0.048,0.962,0.128,0.058,1.022,-0.0,0.008,-0.004
20:02:51,0.475,0.27,0.048,0.963,0.127,0.058,1.021,-0.0,0.01,-0.003
20:02:51,0.479,0.269,0.048,0.963,0.126,0.057,1.02,-0.003,0.009,-0.002
20:02:51,0.479,0.27,0.048,0.963,0.127,0.058,1.018,0.003,0.007,-0.004
20:02:51,0.48,0.27,0.048,0.964,0.127,0.058,1.02,0.007,0.001,-0.001
20:02:51,0.481,0.269,0.048,0.964,0.127,0.059,1.023,0.003,0.002,-0.003
20:02:51,0.482,0.268,0.048,0.964,0.126,0.058,1.023,0.003,-0.001,-0.002
20:02:51,0.482,0.269,0.048,0.963,0.127,0.059,1.022,0.003,-0.003,-0.005
20:02:51,0.481,0.246,0.048,0.961,0.128,0.058,1.021,0.003,-0.004,-0.003
20:02:51,0.483,0.253,0.048,0.962,0.128,0.058,1.021,0.001,-0.003,-0.004
20:02:51,0.485,0.259,0.048,0.963,0.128,0.058,1.023,-0.004,-0.003,-0.007
20:02:51,0.473,0.246,0.048,0.962,0.127,0.059,1.025,0.002,-0.004,-0.001
20:02:51,0.472,0.254,0.048,0.962,0.127,0.059,1.025,-0.001,-0.01,0.0
20:02:51,0.476,0.259,0.048,0.963,0.127,0.058,1.026,-0.003,-0.007,0.002
20:02:52,0.478,0.263,0.048,0.962,0.126,0.058,1.025,-0.003,-0.01,0.001
20:02:52,0.478,0.261,0.048,0.963,0.127,0.058,1.024,-0.008,-0.011,-0.001
20:02:52,0.477,0.262,0.048,0.963,0.127,0.058,1.022,-0.007,-0.01,-0.006
20:02:52,0.475,0.265,0.048,0.963,0.127,0.059,1.022,-0.008,-0.008,-0.008
20:02:52,0.474,0.264,0.048,0.964,0.128,0.059,1.021,-0.005,-0.004,-0.011
20:02:52,0.469,0.263,0.047,0.964,0.128,0.058,1.021,-0.005,-0.006,-0.005
20:02:52,0.471,0.264,0.048,0.964,0.127,0.058,1.022,-0.004,-0.003,-0.003
20:02:52,0.471,0.262,0.048,0.964,0.126,0.058,1.021,-0.008,0.001,-0.006
20:02:52,0.467,0.262,0.047,0.963,0.126,0.058,1.021,-0.005,0.005,-0.005
20:02:52,0.434,0.237,0.044,0.958,0.126,0.057,1.021,-0.003,0.005,-0.001
20:02:52,0.447,0.246,0.046,0.96,0.127,0.058,1.02,-0.001,0.011,0.002
20:02:52,0.458,0.252,0.046,0.961,0.127,0.059,1.019,0.001,0.014,0.002
20:02:52,0.465,0.256,0.047,0.962,0.127,0.059,1.019,0.001,0.015,0.003
20:02:52,0.471,0.261,0.047,0.962,0.129,0.059,1.02,0.007,0.016,-0.001
20:02:52,0.473,0.263,0.047,0.962,0.128,0.058,1.022,0.002,0.014,0.001
20:02:52,0.466,0.259,0.047,0.961,0.128,0.057,1.021,0.003,0.007,0.001
20:02:52,0.471,0.261,0.047,0.962,0.128,0.057,1.023,-0.002,0.005,0.0
20:02:52,0.471,0.264,0.047,0.962,0.127,0.057,1.023,-0.002,0.002,-0.0
20:02:52,0.479,0.266,0.048,0.962,0.126,0.058,1.024,-0.003,0.0,0.001
20:02:52,0.48,0.268,0.048,0.963,0.128,0.059,1.024,-0.006,-0.006,0.003
20:02:52,0.483,0.269,0.048,0.963,0.128,0.058,1.025,-0.01,-0.011,0.0
20:02:52,0.483,0.273,0.048,0.964,0.129,0.059,1.025,-0.009,-0.015,-0.003
20:02:53,0.481,0.271,0.048,0.964,0.128,0.058,1.026,-0.005,-0.015,-0.002
20:02:53,0.484,0.268,0.048,0.963,0.128,0.058,1.025,-0.001,-0.018,-0.002
20:02:53,0.486,0.269,0.048,0.963,0.129,0.058,1.026,-0.005,-0.015,0.0
20:02:53,0.485,0.27,0.048,0.964,0.128,0.059,1.025,-0.006,-0.01,-0.004
20:02:53,0.485,0.272,0.048,0.964,0.127,0.06,1.024,-0.002,-0.009,-0.003
20:02:53,0.486,0.272,0.048,0.964,0.126,0.059,1.024,-0.004,-0.004,-0.003
20:02:53,0.485,0.272,0.048,0.963,0.126,0.059,1.024,-0.003,-0.005,-0.002
20:02:53,0.487,0.271,0.048,0.964,0.126,0.058,1.025,-0.001,-0.009,-0.004
20:02:53,0.49,0.267,0.048,0.963,0.126,0.058,1.024,0.001,-0.014,0.001
20:02:53,0.488,0.268,0.048,0.963,0.127,0.057,1.022,-0.001,-0.01,-0.003
20:02:53,0.485,0.269,0.048,0.963,0.126,0.057,1.024,-0.006,-0.002,0.0
20:02:53,0.49,0.271,0.048,0.963,0.126,0.057,1.021,-0.001,-0.003,0.001
20:02:53,0.488,0.273,0.048,0.963,0.125,0.056,1.022,-0.0,-0.003,-0.005
20:02:53,0.487,0.271,0.048,0.963,0.125,0.055,1.024,0.0,0.002,-0.003
20:02:53,0.486,0.271,0.048,0.963,0.126,0.057,1.025,0.001,0.003,-0.006
20:02:53,0.485,0.271,0.048,0.963,0.126,0.058,1.026,0.005,-0.002,0.002
20:02:53,0.487,0.27,0.048,0.963,0.126,0.058,1.027,-0.003,0.0,-0.002
20:02:53,0.48,0.269,0.048,0.963,0.126,0.058,1.026,-0.007,0.005,-0.004
20:02:53,0.481,0.266,0.047,0.963,0.127,0.057,1.025,-0.003,0.005,-0.002
20:02:53,0.484,0.269,0.047,0.963,0.129,0.057,1.027,-0.004,0.003,-0.002
20:02:53,0.486,0.267,0.047,0.963,0.129,0.058,1.026,-0.002,0.0,-0.001
20:02:53,0.481,0.267,0.048,0.963,0.127,0.057,1.025,-0.002,0.002,-0.002
20:02:54,0.482,0.267,0.048,0.963,0.128,0.058,1.024,-0.004,-0.005,-0.005
20:02:54,0.482,0.268,0.048,0.963,0.127,0.057,1.023,0.0,-0.004,-0.004
20:02:54,0.481,0.265,0.048,0.963,0.127,0.058,1.024,0.009,-0.005,-0.007
20:02:54,0.481,0.267,0.048,0.963,0.125,0.057,1.023,0.015,-0.002,-0.008
20:02:54,0.48,0.268,0.048,0.963,0.126,0.058,1.021,0.013,0.001,-0.009
20:02:54,0.479,0.268,0.048,0.963,0.126,0.059,1.022,0.007,-0.002,-0.01
20:02:54,0.474,0.266,0.048,0.963,0.126,0.06,1.023,0.007,-0.006,-0.009
20:02:54,0.477,0.264,0.048,0.963,0.125,0.06,1.022,0.006,-0.001,-0.008
20:02:54,0.479,0.265,0.048,0.963,0.125,0.059,1.021,0.006,0.001,-0.01
20:02:54,0.482,0.267,0.048,0.963,0.125,0.059,1.019,0.003,-0.001,-0.004
20:02:54,0.475,0.267,0.048,0.963,0.126,0.058,1.017,0.007,-0.001,-0.003
20:02:54,0.473,0.268,0.048,0.963,0.127,0.057,1.015,0.001,0.007,-0.003
20:02:54,0.478,0.269,0.048,0.963,0.126,0.057,1.017,0.004,0.01,-0.002
20:02:54,0.48,0.27,0.048,0.963,0.126,0.056,1.017,0.004,0.01,-0.0
20:02:54,0.483,0.27,0.048,0.964,0.128,0.057,1.019,0.004,0.014,-0.001
20:02:54,0.483,0.271,0.048,0.964,0.128,0.058,1.018,0.004,0.009,0.002
20:02:54,0.477,0.266,0.048,0.964,0.128,0.058,1.019,-0.0,0.003,0.005
20:02:54,0.467,0.266,0.048,0.963,0.127,0.058,1.02,-0.006,-0.003,0.007
20:02:54,0.468,0.268,0.048,0.964,0.127,0.058,1.022,-0.004,-0.005,0.001
20:02:54,0.473,0.269,0.048,0.964,0.126,0.058,1.024,-0.005,-0.006,-0.001
20:02:55,0.476,0.268,0.048,0.963,0.126,0.058,1.024,-0.005,-0.001,-0.003
20:02:55,0.478,0.269,0.048,0.964,0.127,0.058,1.025,-0.004,-0.003,-0.006
20:02:55,0.478,0.268,0.048,0.964,0.127,0.057,1.024,-0.007,-0.004,0.0
20:02:55,0.479,0.268,0.048,0.964,0.126,0.058,1.027,-0.009,-0.001,-0.004
20:02:55,0.481,0.267,0.048,0.965,0.126,0.058,1.026,-0.003,-0.002,-0.0
20:02:55,0.478,0.267,0.048,0.964,0.127,0.057,1.025,0.003,-0.002,0.0
20:02:55,0.485,0.264,0.047,0.964,0.128,0.058,1.025,0.002,0.0,0.001
20:02:55,0.483,0.265,0.048,0.964,0.127,0.058,1.024,0.0,0.002,0.003
20:02:55,0.485,0.268,0.048,0.964,0.127,0.059,1.024,-0.002,0.002,0.003
20:02:55,0.484,0.269,0.048,0.964,0.128,0.06,1.023,0.005,-0.003,0.005
20:02:55,0.472,0.27,0.048,0.964,0.127,0.058,1.02,-0.001,-0.006,0.003
20:02:55,0.472,0.269,0.048,0.964,0.128,0.057,1.019,0.003,-0.012,0.01
20:02:55,0.473,0.27,0.048,0.964,0.129,0.057,1.02,-0.0,-0.017,0.005
20:02:55,0.474,0.27,0.048,0.964,0.128,0.058,1.02,0.0,-0.015,0.004
20:02:55,0.475,0.269,0.048,0.964,0.128,0.057,1.019,0.004,-0.007,0.005
20:02:55,0.478,0.268,0.048,0.964,0.127,0.057,1.02,0.006,-0.003,0.006
20:02:55,0.481,0.268,0.048,0.963,0.128,0.058,1.02,0.012,0.0,0.007
20:02:55,0.48,0.269,0.048,0.963,0.128,0.059,1.022,0.009,-0.004,0.004
20:02:55,0.481,0.268,0.048,0.963,0.128,0.059,1.023,0.009,-0.005,-0.002
20:02:55,0.482,0.271,0.048,0.963,0.127,0.059,1.022,0.002,-0.009,-0.005
20:02:55,0.48,0.269,0.048,0.963,0.127,0.058,1.024,0.001,-0.006,-0.005
20:02:55,0.479,0.27,0.048,0.964,0.127,0.058,1.025,0.001,-0.005,-0.004
20:02:55,0.48,0.269,0.048,0.964,0.127,0.06,1.026,-0.005,-0.002,-0.009
20:02:56,0.479,0.268,0.048,0.964,0.128,0.058,1.027,-0.008,-0.005,-0.004
20:02:56,0.481,0.268,0.048,0.964,0.128,0.058,1.03,-0.011,-0.004,-0.002
20:02:56,0.477,0.267,0.048,0.964,0.128,0.058,1.031,-0.01,-0.009,-0.001
20:02:56,0.483,0.271,0.049,0.963,0.129,0.058,1.03,-0.009,-0.01,-0.003
20:02:56,0.481,0.271,0.049,0.963,0.128,0.058,1.029,-0.011,-0.007,-0.003
20:02:56,0.482,0.246,0.048,0.964,0.129,0.057,1.027,-0.009,-0.006,-0.002
20:02:56,0.48,0.252,0.048,0.964,0.129,0.057,1.025,-0.01,0.003,-0.0
20:02:56,0.479,0.256,0.048,0.964,0.128,0.057,1.024,-0.009,0.006,0.0
20:02:56,0.479,0.261,0.048,0.964,0.129,0.057,1.024,-0.006,0.003,-0.002
20:02:56,0.476,0.262,0.048,0.964,0.128,0.057,1.024,-0.006,0.005,-0.001
20:02:56,0.478,0.265,0.048,0.963,0.128,0.058,1.023,-0.004,0.001,-0.005
20:02:56,0.48,0.267,0.048,0.963,0.128,0.058,1.022,-0.001,0.002,-0.001
20:02:56,0.475,0.268,0.048,0.963,0.127,0.059,1.022,0.002,0.001,0.004
20:02:56,0.478,0.268,0.048,0.963,0.127,0.059,1.021,0.004,0.005,0.003
20:02:56,0.481,0.269,0.048,0.964,0.128,0.059,1.022,0.003,0.006,0.003
20:02:56,0.482,0.27,0.048,0.964,0.127,0.058,1.022,-0.002,0.006,0.007
20:02:56,0.482,0.27,0.048,0.963,0.126,0.057,1.023,-0.004,0.003,0.005
20:02:56,0.481,0.27,0.048,0.963,0.126,0.057,1.024,0.0,0.006,0.008
20:02:56,0.48,0.269,0.048,0.963,0.127,0.057,1.023,-0.005,0.004,0.008
20:02:56,0.477,0.27,0.048,0.963,0.126,0.058,1.023,0.003,0.003,0.009
20:02:56,0.479,0.269,0.048,0.963,0.128,0.059,1.024,0.002,-0.0,0.01
20:02:56,0.48,0.27,0.048,0.964,0.127,0.058,1.025,-0.002,-0.005,0.004
20:02:57,0.481,0.27,0.048,0.964,0.127,0.058,1.024,-0.005,-0.008,0.0
20:02:57,0.478,0.269,0.048,0.964,0.127,0.059,1.025,0.003,-0.01,-0.002
20:02:57,0.484,0.27,0.048,0.964,0.126,0.059,1.025,0.005,-0.006,0.0
20:02:57,0.48,0.267,0.048,0.963,0.126,0.059,1.027,0.002,-0.008,-0.002
20:02:57,0.481,0.268,0.048,0.963,0.128,0.059,1.027,0.004,-0.006,0.001
20:02:57,0.474,0.266,0.048,0.964,0.127,0.058,1.028,0.006,-0.005,-0.0
20:02:57,0.473,0.266,0.048,0.964,0.127,0.057,1.026,0.003,-0.004,-0.001
20:02:57,0.476,0.268,0.048,0.964,0.127,0.057,1.026,0.002,-0.008,-0.002
20:02:57,0.478,0.269,0.048,0.964,0.127,0.056,1.024,0.002,-0.003,0.0
20:02:57,0.478,0.27,0.048,0.964,0.126,0.055,1.022,0.003,0.002,0.002
20:02:57,0.475,0.267,0.048,0.964,0.127,0.057,1.019,0.005,0.004,0.002
20:02:57,0.476,0.267,0.048,0.963,0.127,0.057,1.015,-0.039,0.025,-0.023
20:02:57,0.48,0.267,0.048,0.964,0.31,-0.037,1.058,-0.411,-0.315,-2.885
20:02:57,0.475,0.265,0.048,0.964,0.31,-0.065,1.075,0.086,0.051,-6.795
20:02:57,0.478,0.267,0.047,0.675,0.115,0.005,1.022,-0.913,-0.228,-8.074
20:02:57,0.479,0.268,0.048,0.472,0.076,0.021,1.039,-1.014,-0.372,-7.72
20:02:57,0.479,0.269,0.048,0.331,-0.012,0.056,1.024,-0.772,-0.428,-5.594
20:02:57,0.474,0.268,0.048,0.232,0.025,0.055,1.016,-0.477,-0.107,-3.908
20:02:57,0.477,0.269,0.048,0.162,0.053,0.054,1.021,-0.32,-0.044,-2.731
20:02:57,0.479,0.268,0.048,0.113,0.074,0.054,1.023,-0.217,-0.054,-1.911
20:02:57,0.48,0.269,0.048,0.079,0.086,0.053,1.024,-0.15,-0.061,-1.34
20:02:57,0.473,0.268,0.048,0.056,0.095,0.055,1.026,-0.111,-0.058,-0.935
20:02:58,0.48,0.269,0.048,0.039,0.101,0.055,1.02,-0.08,-0.026,-0.655
20:02:58,0.483,0.267,0.048,0.027,0.105,0.057,1.017,-0.049,-0.013,-0.46
20:02:58,0.483,0.255,0.046,0.019,0.108,0.056,1.019,-0.034,-0.015,-0.324
20:02:58,0.483,0.26,0.046,0.013,0.11,0.057,1.023,-0.022,-0.016,-0.229
20:02:58,0.483,0.263,0.047,0.009,0.113,0.055,1.025,-0.019,-0.009,-0.158
20:02:58,0.485,0.266,0.048,0.007,0.114,0.056,1.026,-0.012,-0.006,-0.109
20:02:58,0.485,0.267,0.048,0.005,0.115,0.054,1.027,-0.008,-0.005,-0.078
20:02:58,0.484,0.269,0.048,0.003,0.116,0.054,1.026,-0.011,-0.001,-0.05
20:02:58,0.488,0.272,0.049,0.002,0.117,0.053,1.026,-0.012,-0.002,-0.04
20:02:58,0.479,0.269,0.048,0.002,0.115,0.054,1.024,-0.003,-0.011,-0.029
20:02:58,0.482,0.27,0.048,0.001,0.117,0.054,1.022,-0.003,-0.014,-0.019
20:02:58,0.481,0.272,0.049,0.001,0.118,0.053,1.021,-0.004,-0.016,-0.013
20:02:58,0.481,0.272,0.049,0.001,0.117,0.053,1.019,-0.001,-0.015,-0.013
20:02:58,0.484,0.27,0.049,0.0,0.117,0.053,1.019,0.0,-0.009,-0.008
20:02:58,0.484,0.27,0.049,0.0,0.117,0.053,1.017,-0.001,-0.008,-0.005
20:02:58,0.484,0.271,0.049,0.0,0.118,0.053,1.018,-0.004,-0.002,-0.003
20:02:58,0.484,0.269,0.049,0.0,0.117,0.052,1.017,-0.009,-0.004,-0.003
20:02:58,0.484,0.27,0.048,0.0,0.117,0.052,1.018,-0.003,-0.003,-0.004
20:02:58,0.484,0.27,0.048,0.0,0.117,0.053,1.019,-0.005,-0.004,-0.0
20:02:58,0.484,0.271,0.048,0.0,0.116,0.053,1.02,0.001,-0.007,-0.001
20:02:59,0.485,0.272,0.049,0.0,0.117,0.053,1.02,0.004,-0.002,-0.006
20:02:59,0.481,0.272,0.048,0.0,0.118,0.054,1.022,-0.004,-0.003,-0.003
20:02:59,0.482,0.272,0.048,0.0,0.117,0.055,1.023,-0.006,-0.003,-0.004
20:02:59,0.482,0.272,0.048,0.0,0.117,0.055,1.024,-0.004,0.01,-0.002
20:02:59,0.487,0.272,0.048,0.0,0.117,0.056,1.024,-0.006,0.013,0.001
20:02:59,0.49,0.273,0.048,0.0,0.117,0.057,1.024,-0.004,0.01,-0.003
20:02:59,0.488,0.273,0.048,0.0,0.117,0.057,1.025,-0.006,0.007,-0.003
20:02:59,0.488,0.272,0.049,0.0,0.116,0.057,1.026,-0.008,0.014,-0.005
20:02:59,0.483,0.27,0.048,0.0,0.116,0.055,1.024,-0.001,0.018,0.002
20:02:59,0.483,0.271,0.048,0.0,0.116,0.055,1.024,0.001,0.014,-0.002
20:02:59,0.483,0.271,0.048,0.0,0.117,0.055,1.026,0.002,0.013,0.001
20:02:59,0.485,0.274,0.048,0.0,0.117,0.055,1.025,0.003,0.009,0.002
20:02:59,0.475,0.254,0.047,0.0,0.116,0.055,1.025,0.001,0.006,0.005
20:02:59,0.477,0.259,0.048,0.0,0.117,0.055,1.026,0.001,0.007,0.003
20:02:59,0.479,0.263,0.048,0.0,0.117,0.054,1.024,0.0,0.007,-0.001
20:02:59,0.482,0.265,0.048,0.0,0.116,0.053,1.022,-0.005,0.008,0.004
20:02:59,0.487,0.269,0.048,0.0,0.116,0.053,1.021,0.0,0.012,0.002
20:02:59,0.484,0.269,0.048,0.0,0.115,0.054,1.021,-0.006,0.008,0.002
20:02:59,0.486,0.27,0.048,0.0,0.116,0.054,1.019,-0.005,0.003,0.002
20:02:59,0.487,0.272,0.049,0.0,0.115,0.054,1.019,-0.001,0.003,0.002
20:02:59,0.488,0.272,0.049,0.0,0.116,0.055,1.02,0.0,0.004,-0.001
20:02:59,0.485,0.272,0.048,0.0,0.113,0.054,1.019,-0.005,0.007,0.0
20:02:59,0.484,0.273,0.048,0.0,0.114,0.054,1.017,0.003,0.0,-0.008
20:03:00,0.482,0.273,0.048,0.0,0.114,0.054,1.018,0.004,-0.0,-0.002
20:03:00,0.482,0.272,0.048,0.0,0.115,0.054,1.019,0.001,0.002,-0.002
20:03:00,0.485,0.272,0.048,0.0,0.115,0.054,1.018,0.002,0.004,-0.005
20:03:00,0.484,0.273,0.048,0.0,0.117,0.055,1.02,-0.001,-0.001,-0.007
20:03:00,0.484,0.273,0.049,0.0,0.117,0.055,1.02,0.001,-0.002,-0.008
20:03:00,0.482,0.272,0.049,0.0,0.116,0.054,1.023,0.007,-0.003,-0.008
20:03:00,0.484,0.272,0.049,0.0,0.116,0.054,1.023,0.004,-0.003,-0.009
20:03:00,0.486,0.273,0.049,0.0,0.116,0.056,1.023,0.004,0.001,-0.007
20:03:00,0.487,0.274,0.049,0.0,0.116,0.055,1.025,0.004,-0.003,-0.008
20:03:00,0.488,0.273,0.049,0.0,0.116,0.055,1.027,-0.002,-0.001,-0.005
20:03:00,0.489,0.274,0.049,0.0,0.116,0.054,1.027,-0.003,0.0,-0.0
20:03:00,0.485,0.273,0.049,0.0,0.118,0.053,1.028,-0.01,-0.012,0.001
20:03:00,0.487,0.273,0.049,0.0,0.12,0.053,1.028,-0.011,-0.013,0.0
20:03:00,0.488,0.272,0.049,0.0,0.12,0.053,1.026,-0.013,-0.01,-0.002
20:03:00,0.486,0.269,0.048,0.0,0.119,0.053,1.025,-0.003,-0.0,-0.009
20:03:00,0.487,0.27,0.048,0.0,0.118,0.055,1.022,-0.001,0.007,-0.011
20:03:00,0.486,0.27,0.048,0.0,0.119,0.054,1.022,0.002,0.01,-0.009
20:03:00,0.485,0.271,0.049,0.0,0.118,0.054,1.021,0.004,0.008,-0.009
20:03:00,0.487,0.271,0.049,0.0,0.118,0.054,1.019,0.002,0.005,-0.003
20:03:00,0.486,0.272,0.049,0.0,0.117,0.054,1.018,0.007,-0.002,-0.007
20:03:00,0.485,0.274,0.049,0.0,0.117,0.054,1.018,0.007,-0.003,-0.006
20:03:00,0.489,0.273,0.049,0.0,0.117,0.053,1.018,0.004,-0.003,-0.004
20:03:01,0.491,0.274,0.049,0.0,0.116,0.053,1.019,0.005,-0.003,-0.013
20:03:01,0.489,0.273,0.049,0.0,0.115,0.053,1.022,0.005,-0.003,-0.009
20:03:01,0.487,0.273,0.049,0.0,0.117,0.053,1.023,0.004,-0.006,-0.007
20:03:01,0.486,0.274,0.049,0.0,0.117,0.053,1.026,-0.002,-0.002,-0.002
20:03:01,0.491,0.273,0.049,0.0,0.116,0.053,1.026,-0.003,-0.003,-0.003
20:03:01,0.491,0.273,0.049,0.0,0.116,0.054,1.027,-0.004,-0.001,-0.003
20:03:01,0.491,0.274,0.049,0.0,0.115,0.055,1.027,-0.009,0.004,0.005
20:03:01,0.488,0.273,0.049,0.0,0.115,0.054,1.027,-0.01,0.0,0.003
20:03:01,0.485,0.273,0.049,0.0,0.116,0.055,1.029,-0.009,-0.007,0.006
20:03:01,0.487,0.274,0.049,0.0,0.115,0.055,1.03,-0.012,-0.003,0.009
20:03:01,0.492,0.276,0.049,0.0,0.115,0.055,1.028,-0.008,0.001,0.007
20:03:01,0.491,0.275,0.049,0.0,0.114,0.055,1.026,0.004,-0.001,0.0
20:03:01,0.495,0.277,0.049,0.0,0.116,0.055,1.026,0.001,0.002,0.001
20:03:01,0.491,0.275,0.048,0.0,0.116,0.055,1.028,0.002,0.006,0.005
20:03:01,0.489,0.274,0.048,0.0,0.116,0.054,1.027,-0.004,0.008,0.001
20:03:01,0.485,0.273,0.048,0.0,0.116,0.055,1.028,-0.002,0.005,0.003
20:03:01,0.477,0.253,0.048,0.0,0.116,0.056,1.031,-0.006,0.001,0.002
20:03:01,0.481,0.26,0.048,0.0,0.117,0.055,1.031,-0.003,0.002,0.001
20:03:01,0.486,0.265,0.048,0.0,0.116,0.055,1.028,-0.005,0.001,-0.001
20:03:01,0.489,0.265,0.048,0.0,0.116,0.054,1.027,-0.001,0.002,-0.002
20:03:01,0.487,0.267,0.048,0.0,0.117,0.054,1.026,-0.006,-0.007,-0.004
20:03:01,0.488,0.268,0.048,0.0,0.109,0.046,1.032,0.03,-0.025,-0.01
20:03:02,0.489,0.269,0.049,0.0,0.11,0.048,1.035,0.009,-0.024,-0.014
20:03:02,0.489,0.27,0.049,0.0,0.112,0.051,1.033,0.004,-0.02,-0.009
20:03:02,0.487,0.272,0.049,0.0,0.114,0.052,1.033,0.0,-0.011,-0.003
20:03:02,0.49,0.272,0.049,0.0,0.114,0.053,1.029,0.001,-0.012,-0.003
20:03:02,0.486,0.273,0.049,0.0,0.115,0.054,1.028,-0.0,-0.021,0.001
20:03:02,0.485,0.274,0.049,0.0,0.115,0.055,1.027,-0.0,-0.017,-0.0
20:03:02,0.489,0.249,0.046,0.0,0.115,0.054,1.028,-0.001,-0.01,0.002
20:03:02,0.489,0.259,0.047,0.0,0.114,0.053,1.029,-0.006,0.0,0.001
20:03:02,0.489,0.264,0.048,0.0,0.115,0.055,1.028,-0.006,0.002,0.002
20:03:02,0.49,0.266,0.048,0.0,0.115,0.055,1.028,-0.002,0.004,0.003
20:03:02,0.49,0.268,0.048,0.0,0.116,0.054,1.029,-0.003,0.007,0.001
20:03:02,0.494,0.269,0.048,0.0,0.119,0.055,1.028,-0.004,0.014,0.002
20:03:02,0.493,0.271,0.048,0.0,0.119,0.056,1.031,0.001,0.004,0.005
20:03:02,0.454,0.271,0.048,0.0,0.118,0.056,1.029,-0.0,0.013,0.002
20:03:02,0.431,0.271,0.048,0.0,0.118,0.057,1.029,-0.001,0.012,-0.002
20:03:02,0.449,0.271,0.048,0.0,0.118,0.056,1.026,0.0,0.014,-0.0
20:03:02,0.463,0.273,0.049,0.0,0.117,0.055,1.024,0.005,0.014,-0.004
20:03:02,0.469,0.248,0.049,0.0,0.119,0.055,1.022,0.002,0.009,0.001
20:03:02,0.474,0.255,0.049,0.0,0.119,0.055,1.022,-0.003,0.004,0.001
20:03:02,0.476,0.257,0.049,0.0,0.118,0.054,1.021,-0.001,0.006,0.001
20:03:02,0.481,0.263,0.049,0.0,0.118,0.055,1.018,-0.001,0.005,0.001
20:03:02,0.485,0.267,0.049,0.0,0.116,0.055,1.016,0.008,0.002,-0.004
20:03:03,0.485,0.27,0.049,0.0,0.117,0.054,1.019,0.004,-0.003,-0.005
20:03:03,0.484,0.272,0.049,0.0,0.116,0.054,1.02,0.005,-0.008,-0.008
20:03:03,0.486,0.273,0.049,0.0,0.116,0.053,1.022,0.002,-0.01,-0.009
20:03:03,0.487,0.274,0.049,0.0,0.117,0.053,1.023,0.004,-0.002,-0.006
20:03:03,0.486,0.273,0.049,0.0,0.118,0.054,1.023,0.005,0.003,-0.002
20:03:03,0.487,0.274,0.049,0.0,0.119,0.055,1.022,0.001,-0.0,-0.0
20:03:03,0.488,0.275,0.049,0.0,0.119,0.056,1.03,-0.012,-0.03,-0.003
20:03:03,0.489,0.272,0.049,0.0,0.118,0.055,1.034,-0.013,-0.068,-0.003
20:03:03,0.485,0.272,0.049,0.0,0.117,0.056,1.038,-0.01,-0.062,-0.005
20:03:03,0.489,0.272,0.049,0.0,0.117,0.056,1.044,-0.015,-0.037,-0.005
20:03:03,0.489,0.273,0.049,0.0,0.118,0.057,1.048,-0.017,-0.012,-0.003
20:03:03,0.491,0.274,0.049,0.0,0.118,0.056,1.051,-0.022,-0.001,-0.004
20:03:03,0.489,0.275,0.048,0.0,0.119,0.056,1.049,-0.017,0.006,-0.001
20:03:03,0.489,0.274,0.048,0.0,0.118,0.056,1.046,-0.024,0.007,0.003
20:03:03,0.49,0.273,0.048,0.0,0.118,0.056,1.042,-0.02,0.007,-0.003
20:03:03,0.49,0.273,0.048,0.0,0.118,0.055,1.038,-0.013,0.012,-0.0
20:03:03,0.492,0.272,0.049,0.0,0.117,0.054,1.033,-0.011,0.015,-0.001
20:03:03,0.491,0.272,0.048,0.0,0.12,0.056,1.031,-0.007,0.012,0.0
20:03:03,0.497,0.269,0.048,0.0,0.119,0.057,1.03,-0.001,0.01,-0.004
20:03:03,0.495,0.27,0.048,0.0,0.117,0.055,1.027,-0.003,0.01,-0.002
20:03:03,0.493,0.27,0.048,0.0,0.117,0.056,1.024,-0.008,0.002,-0.004
20:03:04,0.488,0.27,0.048,0.0,0.116,0.055,1.022,-0.004,0.0,-0.002
20:03:04,0.493,0.272,0.048,0.0,0.116,0.055,1.021,-0.009,0.001,-0.0
20:03:04,0.49,0.272,0.049,0.0,0.115,0.055,1.019,-0.003,-0.003,-0.001
20:03:04,0.49,0.272,0.049,0.0,0.116,0.055,1.02,-0.001,0.003,-0.003
20:03:04,0.488,0.273,0.049,0.0,0.115,0.054,1.02,-0.003,0.002,0.001
20:03:04,0.489,0.273,0.049,0.0,0.114,0.055,1.022,0.0,0.001,0.002
20:03:04,0.491,0.274,0.049,0.0,0.115,0.056,1.023,0.003,0.002,0.001
20:03:04,0.491,0.275,0.049,0.0,0.116,0.055,1.023,0.002,-0.001,0.004
20:03:04,0.489,0.277,0.049,0.0,0.116,0.056,1.024,-0.003,0.004,0.002
20:03:04,0.489,0.275,0.048,0.0,0.117,0.055,1.022,-0.003,0.003,0.0
20:03:04,0.487,0.275,0.048,0.0,0.117,0.055,1.024,-0.008,0.003,-0.006
20:03:04,0.49,0.274,0.048,0.0,0.117,0.054,1.024,-0.004,0.004,-0.004
20:03:04,0.492,0.273,0.049,0.0,0.117,0.055,1.025,-0.002,0.005,-0.0
20:03:04,0.488,0.274,0.049,0.0,0.118,0.056,1.025,-0.007,0.001,0.003
20:03:04,0.488,0.273,0.049,0.0,0.117,0.055,1.023,0.001,0.003,0.007
20:03:04,0.485,0.274,0.049,0.0,0.117,0.055,1.023,-0.001,0.004,0.005
20:03:04,0.488,0.249,0.049,0.0,0.117,0.056,1.024,-0.003,0.001,0.005
20:03:04,0.489,0.26,0.049,0.0,0.118,0.055,1.024,0.001,0.005,-0.004
20:03:04,0.493,0.265,0.049,0.0,0.118,0.054,1.023,-0.001,-0.0,-0.003
20:03:04,0.49,0.269,0.049,0.0,0.117,0.054,1.022,-0.007,0.001,-0.004
20:03:04,0.488,0.271,0.049,0.0,0.117,0.054,1.02,-0.002,0.007,-0.002
20:03:04,0.489,0.271,0.049,0.0,0.119,0.054,1.022,-0.003,0.006,-0.0
20:03:05,0.489,0.273,0.049,0.0,0.118,0.053,1.022,-0.002,0.008,-0.001
20:03:05,0.456,0.274,0.049,0.0,0.117,0.054,1.022,-0.003,-0.0,-0.008
20:03:05,0.466,0.275,0.049,0.0,0.118,0.054,1.024,0.001,-0.003,-0.006
20:03:05,0.469,0.274,0.049,0.0,0.118,0.055,1.025,-0.002,-0.004,-0.005
20:03:05,0.473,0.274,0.049,0.0,0.117,0.054,1.026,0.001,0.003,-0.004
20:03:05,0.476,0.275,0.049,0.0,0.116,0.055,1.025,0.003,0.006,0.001
20:03:05,0.479,0.278,0.049,0.0,0.116,0.055,1.024,0.005,0.002,0.003
20:03:05,0.482,0.278,0.049,0.0,0.116,0.054,1.022,0.003,0.009,0.0
20:03:05,0.484,0.276,0.049,0.0,0.116,0.054,1.018,0.005,0.013,-0.003
20:03:05,0.484,0.275,0.049,0.0,0.116,0.055,1.018,0.002,0.009,0.002
20:03:05,0.484,0.277,0.049,0.0,0.116,0.055,1.019,0.005,0.004,0.005
20:03:05,0.484,0.277,0.049,0.0,0.116,0.056,1.02,0.002,0.002,0.0
20:03:05,0.486,0.276,0.049,0.0,0.116,0.055,1.022,-0.004,-0.003,-0.003
20:03:05,0.485,0.275,0.049,0.0,0.117,0.054,1.024,-0.002,-0.005,-0.001
20:03:05,0.489,0.275,0.049,0.0,0.117,0.055,1.026,-0.006,-0.005,0.003
20:03:05,0.487,0.276,0.049,0.0,0.117,0.055,1.027,-0.0,-0.001,-0.003
20:03:05,0.488,0.276,0.049,0.0,0.117,0.055,1.027,0.003,0.001,-0.001
20:03:05,0.489,0.275,0.049,0.0,0.116,0.055,1.028,0.002,0.001,0.004
20:03:05,0.489,0.275,0.049,0.0,0.116,0.054,1.026,-0.002,0.001,0.001
20:03:05,0.491,0.247,0.045,0.0,0.116,0.053,1.024,-0.006,0.005,0.001
20:03:05,0.491,0.254,0.046,0.0,0.115,0.052,1.023,-0.006,0.004,0.004
20:03:05,0.493,0.261,0.047,0.0,0.116,0.053,1.021,-0.007,0.004,0.006
20:03:06,0.492,0.266,0.047,0.0,0.117,0.054,1.02,-0.003,0.0,0.003
20:03:06,0.489,0.27,0.048,0.0,0.118,0.052,1.019,-0.007,-0.002,0.004
20:03:06,0.496,0.274,0.048,0.0,0.116,0.052,1.022,-0.001,-0.004,0.005
20:03:06,0.492,0.273,0.048,0.0,0.116,0.053,1.023,0.001,-0.005,0.004
20:03:06,0.491,0.272,0.048,0.0,0.116,0.054,1.024,-0.0,-0.006,-0.0
20:03:06,0.491,0.272,0.048,0.0,0.118,0.054,1.022,-0.001,-0.003,0.001
20:03:06,0.493,0.273,0.048,0.0,0.117,0.055,1.023,0.004,-0.005,-0.001
20:03:06,0.492,0.274,0.049,0.0,0.118,0.054,1.021,-0.0,-0.01,0.003
20:03:06,0.491,0.275,0.049,0.0,0.117,0.056,1.023,0.005,-0.011,0.005
20:03:06,0.491,0.274,0.049,0.0,0.116,0.056,1.024,0.002,-0.006,0.005
20:03:06,0.493,0.273,0.048,0.0,0.118,0.055,1.024,-0.0,-0.008,0.004
20:03:06,0.496,0.276,0.048,0.0,0.117,0.055,1.024,-0.002,-0.003,0.001
20:03:06,0.496,0.274,0.048,0.0,0.117,0.056,1.026,-0.001,-0.002,-0.0
20:03:06,0.498,0.278,0.049,0.0,0.118,0.056,1.028,-0.004,-0.003,0.001
20:03:06,0.498,0.277,0.049,0.0,0.118,0.056,1.027,-0.007,-0.008,0.003
20:03:06,0.462,0.274,0.049,0.0,0.118,0.055,1.03,-0.007,-0.014,0.002
20:03:06,0.47,0.275,0.049,0.0,0.117,0.054,1.03,-0.006,-0.01,0.001
20:03:06,0.476,0.274,0.048,0.0,0.117,0.054,1.03,-0.005,-0.007,-0.005
20:03:06,0.476,0.273,0.048,0.0,0.117,0.055,1.03,-0.009,-0.004,-0.001
20:03:06,0.482,0.274,0.048,0.0,0.116,0.055,1.028,-0.009,-0.004,0.001
20:03:07,0.485,0.275,0.048,0.0,0.117,0.054,1.027,-0.005,-0.001,0.004
20:03:07,0.486,0.274,0.048,0.0,0.117,0.054,1.025,-0.003,-0.0,0.005
20:03:07,0.493,0.275,0.048,0.0,0.117,0.054,1.024,-0.001,-0.012,-0.001
20:03:07,0.465,0.266,0.048,0.0,0.116,0.054,1.027,-0.006,-0.016,-0.0
20:03:07,0.472,0.269,0.048,0.0,0.116,0.054,1.028,-0.003,-0.004,0.005
20:03:07,0.478,0.27,0.049,0.0,0.117,0.055,1.028,-0.007,0.002,0.005
20:03:07,0.479,0.272,0.049,0.0,0.118,0.054,1.027,-0.005,0.006,0.007
20:03:07,0.485,0.272,0.049,0.0,0.117,0.055,1.025,-0.002,-0.001,0.004
20:03:07,0.446,0.273,0.045,0.0,0.117,0.055,1.025,-0.004,-0.005,0.0
20:03:07,0.458,0.274,0.046,0.0,0.118,0.055,1.024,0.0,0.01,-0.005
20:03:07,0.469,0.275,0.047,0.0,0.117,0.055,1.021,0.002,0.011,-0.002
20:03:07,0.472,0.275,0.048,0.0,0.116,0.055,1.02,0.004,0.009,-0.006
20:03:07,0.477,0.276,0.048,0.0,0.115,0.055,1.015,0.008,0.006,-0.002
20:03:07,0.483,0.274,0.048,0.0,0.115,0.054,1.009,0.011,0.017,-0.004
20:03:07,0.483,0.273,0.048,0.0,0.116,0.053,1.001,0.021,0.046,-0.003
20:03:07,0.489,0.274,0.048,0.0,0.117,0.054,1.001,0.026,0.035,-0.004
20:03:07,0.489,0.275,0.048,0.0,0.117,0.053,1.0,0.03,0.015,0.002
20:03:07,0.486,0.272,0.048,0.0,0.117,0.054,1.004,0.026,-0.009,-0.001
20:03:07,0.485,0.272,0.048,0.0,0.117,0.055,1.011,0.017,-0.018,-0.0
20:03:07,0.487,0.275,0.048,0.0,0.115,0.055,1.017,0.014,-0.019,-0.002
20:03:07,0.486,0.272,0.048,0.0,0.116,0.055,1.022,0.009,-0.018,0.001
20:03:07,0.489,0.274,0.048,0.0,0.115,0.05,1.018,-0.004,-0.006,-0.001
20:03:07,0.489,0.274,0.049,0.0,0.117,0.05,1.022,-0.001,-0.013,0.006
20:03:08,0.49,0.275,0.049,0.0,0.117,0.05,1.018,0.013,-0.019,0.005
20:03:08,0.474,0.259,0.048,0.0,0.115,0.048,0.992,0.008,0.078,0.001
20:03:08,0.479,0.263,0.048,0.0,0.115,0.048,0.978,0.026,0.115,0.0
20:03:08,0.486,0.268,0.048,0.0,0.114,0.047,0.972,0.045,0.071,0.001
20:03:08,0.489,0.269,0.048,0.0,0.114,0.049,0.973,0.053,0.028,-0.002
20:03:08,0.493,0.27,0.048,0.0,0.115,0.051,0.98,0.049,-0.0,-0.005
20:03:08,0.492,0.27,0.049,0.0,0.114,0.052,0.988,0.047,-0.009,-0.006
20:03:08,0.492,0.271,0.049,0.0,0.115,0.052,0.996,0.042,-0.011,-0.005
20:03:08,0.489,0.272,0.049,0.0,0.115,0.053,1.004,0.034,-0.011,-0.005
20:03:08,0.489,0.274,0.048,0.0,0.115,0.053,1.01,0.023,-0.011,-0.003
20:03:08,0.49,0.276,0.048,0.0,0.115,0.054,1.015,0.019,-0.009,-0.002
20:03:08,0.486,0.275,0.048,0.0,0.114,0.052,1.021,0.014,-0.005,-0.003
20:03:08,0.487,0.274,0.048,0.0,0.116,0.052,1.022,0.01,-0.007,-0.002
20:03:08,0.488,0.274,0.048,0.0,0.115,0.053,1.024,0.01,-0.006,0.001
20:03:08,0.491,0.275,0.048,0.0,0.114,0.055,1.028,0.009,-0.004,-0.002
20:03:08,0.492,0.251,0.048,0.0,0.115,0.055,1.026,0.006,-0.001,-0.004
20:03:08,0.494,0.26,0.048,0.0,0.115,0.056,1.027,0.003,-0.005,0.003
20:03:08,0.495,0.264,0.046,0.0,0.115,0.056,1.028,0.005,-0.01,0.003
20:03:08,0.489,0.266,0.047,0.0,0.114,0.056,1.03,0.002,-0.012,0.001
20:03:08,0.493,0.272,0.047,0.0,0.115,0.055,1.029,-0.006,-0.011,0.001
20:03:08,0.492,0.272,0.048,0.0,0.116,0.056,1.03,-0.006,-0.015,-0.001
20:03:08,0.494,0.273,0.048,0.0,0.116,0.055,1.03,-0.007,-0.011,-0.002
20:03:09,0.495,0.274,0.048,0.0,0.115,0.057,1.032,-0.006,-0.014,-0.0
20:03:09,0.491,0.273,0.048,0.0,0.116,0.056,1.031,-0.008,-0.011,0.001
20:03:09,0.489,0.273,0.048,0.0,0.116,0.056,1.031,-0.009,-0.011,-0.001
20:03:09,0.487,0.272,0.048,0.0,0.117,0.056,1.03,-0.009,-0.002,-0.002
20:03:09,0.49,0.272,0.048,0.0,0.116,0.054,1.026,-0.006,0.004,0.001
20:03:09,0.486,0.272,0.048,0.0,0.116,0.054,1.023,-0.006,0.009,-0.002
20:03:09,0.489,0.267,0.049,0.0,0.117,0.055,1.019,-0.008,0.007,-0.008
20:03:09,0.488,0.27,0.049,0.0,0.116,0.054,1.018,-0.006,0.006,-0.003
20:03:09,0.49,0.27,0.049,0.0,0.116,0.054,1.018,-0.003,0.005,-0.002
20:03:09,0.49,0.272,0.049,0.0,0.116,0.056,1.017,0.002,0.005,-0.003
20:03:09,0.49,0.272,0.049,0.0,0.117,0.054,1.016,0.001,0.009,-0.005
20:03:09,0.486,0.272,0.049,0.0,0.117,0.054,1.016,-0.001,0.007,-0.006
20:03:09,0.485,0.272,0.048,0.0,0.117,0.055,1.015,0.004,0.005,-0.007
20:03:09,0.487,0.272,0.048,0.0,0.117,0.054,1.016,0.007,0.0,-0.006
20:03:09,0.484,0.271,0.048,0.0,0.116,0.054,1.016,0.007,-0.002,-0.009
20:03:09,0.482,0.271,0.048,0.0,0.116,0.053,1.017,0.006,-0.0,-0.01
20:03:09,0.482,0.271,0.048,0.0,0.117,0.054,1.019,-0.002,0.001,-0.004
20:03:09,0.485,0.271,0.048,0.0,0.116,0.054,1.02,0.001,0.008,-0.002
20:03:09,0.484,0.243,0.049,0.0,0.116,0.055,1.018,0.003,0.005,0.002
20:03:09,0.486,0.247,0.046,0.0,0.115,0.054,1.017,0.002,0.007,0.004
20:03:10,0.485,0.256,0.047,0.0,0.116,0.054,1.018,0.003,0.007,0.002
20:03:10,0.471,0.248,0.044,0.0,0.115,0.055,1.019,-0.0,0.013,0.002
20:03:10,0.477,0.257,0.045,0.0,0.116,0.056,1.019,-0.001,0.013,0.003
20:03:10,0.481,0.263,0.046,0.0,0.116,0.055,1.019,0.001,0.007,-0.002
20:03:10,0.474,0.265,0.047,0.0,0.117,0.054,1.019,0.001,0.003,-0.003
20:03:10,0.478,0.269,0.048,0.0,0.117,0.055,1.018,-0.002,0.041,0.001
20:03:10,0.488,0.272,0.047,0.0,0.117,0.055,1.027,-0.001,0.012,-0.002
20:03:10,0.487,0.272,0.048,0.0,0.119,0.056,1.027,-0.009,-0.003,-0.0
20:03:10,0.488,0.273,0.048,0.0,0.118,0.054,1.025,-0.01,-0.014,-0.001
20:03:10,0.488,0.273,0.048,0.0,0.117,0.055,1.023,-0.009,-0.018,0.003
20:03:10,0.489,0.274,0.048,0.0,0.116,0.055,1.02,-0.003,-0.016,0.003
20:03:10,0.487,0.275,0.048,0.0,0.117,0.056,1.019,0.001,-0.015,0.007
20:03:10,0.45,0.274,0.045,0.0,0.117,0.056,1.019,0.003,-0.015,0.005
20:03:10,0.46,0.273,0.046,0.0,0.117,0.055,1.017,0.003,-0.013,0.002
20:03:10,0.469,0.272,0.047,0.0,0.117,0.055,1.018,0.001,-0.011,-0.001
20:03:10,0.475,0.272,0.047,0.0,0.117,0.056,1.02,0.003,-0.008,-0.002
20:03:10,0.48,0.272,0.048,0.0,0.117,0.056,1.021,-0.001,-0.004,-0.001
20:03:10,0.471,0.276,0.048,0.0,0.118,0.055,1.021,-0.001,0.0,0.002
20:03:10,0.473,0.275,0.048,0.0,0.117,0.056,1.021,-0.005,-0.001,0.006
20:03:10,0.48,0.277,0.048,0.0,0.116,0.055,1.022,-0.003,0.003,0.006
20:03:11,0.483,0.265,0.048,0.0,0.115,0.056,1.021,-0.0,0.004,0.004
20:03:11,0.485,0.267,0.048,0.0,0.116,0.056,1.023,0.009,0.008,0.004
20:03:11,0.485,0.268,0.048,0.0,0.117,0.054,1.023,0.008,-0.001,0.006
20:03:11,0.488,0.269,0.048,0.0,0.117,0.055,1.023,0.013,-0.008,0.008
20:03:11,0.491,0.27,0.048,0.0,0.114,0.054,1.025,0.013,-0.002,-0.001
20:03:11,0.491,0.272,0.049,0.0,0.115,0.055,1.022,0.011,0.008,0.005
20:03:11,0.492,0.276,0.049,0.0,0.114,0.054,1.021,0.006,0.014,-0.001
20:03:11,0.49,0.276,0.049,0.0,0.115,0.054,1.02,0.0,0.009,0.002
20:03:11,0.486,0.275,0.049,0.0,0.116,0.055,1.019,0.007,0.013,-0.001
20:03:11,0.483,0.274,0.048,0.0,0.115,0.054,1.015,0.013,0.022,-0.002
20:03:11,0.483,0.273,0.048,0.0,0.114,0.055,1.015,0.012,0.025,0.001
20:03:11,0.481,0.273,0.049,0.0,0.114,0.055,1.012,0.01,0.031,-0.007
20:03:11,0.446,0.272,0.048,0.0,0.115,0.056,1.016,0.015,0.016,-0.006
20:03:11,0.459,0.273,0.048,0.0,0.114,0.055,1.018,0.009,-0.001,-0.005
20:03:11,0.467,0.273,0.048,0.0,0.114,0.054,1.02,-0.007,-0.012,-0.007
20:03:11,0.474,0.274,0.048,0.0,0.116,0.053,1.024,-0.014,-0.026,-0.005
20:03:11,0.475,0.275,0.048,0.0,0.116,0.055,1.027,-0.021,-0.03,-0.004
20:03:11,0.477,0.274,0.048,0.0,0.115,0.054,1.026,-0.022,-0.03,-0.004
20:03:11,0.477,0.273,0.048,0.0,0.117,0.056,1.025,-0.02,-0.029,-0.003
20:03:11,0.481,0.271,0.048,0.0,0.118,0.056,1.028,-0.019,-0.029,-0.001
20:03:11,0.482,0.271,0.048,0.0,0.117,0.055,1.03,-0.016,-0.024,0.001
20:03:11,0.484,0.273,0.048,0.0,0.118,0.056,1.032,-0.008,-0.018,0.003
20:03:11,0.49,0.274,0.048,0.0,0.117,0.057,1.031,-0.012,-0.009,0.0
20:03:11,0.486,0.273,0.048,0.0,0.117,0.056,1.03,-0.014,-0.002,0.001
20:03:11,0.491,0.267,0.048,0.0,0.118,0.055,1.029,-0.014,0.001,0.005
20:03:12,0.493,0.269,0.048,0.0,0.117,0.055,1.027,-0.01,0.002,0.003
20:03:12,0.492,0.272,0.049,0.0,0.118,0.055,1.024,-0.009,0.011,0.003
20:03:12,0.491,0.273,0.049,0.0,0.119,0.055,1.025,-0.003,0.002,0.004
20:03:12,0.491,0.274,0.049,0.0,0.118,0.055,1.024,-0.0,-0.003,0.003
20:03:12,0.491,0.273,0.049,0.0,0.117,0.055,1.024,0.001,-0.004,0.001
20:03:12,0.493,0.274,0.049,0.0,0.118,0.056,1.023,0.005,-0.002,0.001
20:03:12,0.49,0.273,0.049,0.0,0.118,0.054,1.024,0.009,-0.001,0.001
20:03:12,0.488,0.274,0.049,0.0,0.117,0.056,1.024,0.005,-0.002,0.003
20:03:12,0.487,0.275,0.049,0.0,0.117,0.056,1.024,0.003,-0.002,-0.001
20:03:12,0.486,0.275,0.049,0.0,0.116,0.056,1.023,0.007,-0.002,-0.001
20:03:12,0.485,0.271,0.049,0.0,0.117,0.055,1.022,-0.0,-0.004,0.0
20:03:12,0.486,0.273,0.049,0.0,0.117,0.054,1.021,0.0,-0.003,0.001
20:03:12,0.486,0.271,0.049,0.0,0.116,0.055,1.021,0.003,0.0,0.001
20:03:12,0.487,0.271,0.049,0.0,0.116,0.054,1.023,0.006,0.003,0.001
20:03:13,0.49,0.274,0.049,0.0,0.116,0.054,1.023,0.007,0.001,0.001
20:03:13,0.488,0.276,0.049,0.0,0.116,0.054,1.023,0.009,-0.006,0.004
20:03:13,0.489,0.276,0.049,0.0,0.116,0.055,1.023,0.007,-0.004,0.009
20:03:13,0.489,0.275,0.048,0.0,0.115,0.054,1.019,0.012,-0.012,0.004
20:03:13,0.491,0.274,0.048,0.0,0.114,0.054,1.008,0.034,-0.006,0.0
20:03:13,0.491,0.273,0.048,0.0,0.114,0.054,1.007,0.037,0.033,-0.004
20:03:13,0.491,0.273,0.048,0.0,0.115,0.053,1.01,0.03,0.042,0.0
20:03:13,0.494,0.277,0.049,0.0,0.117,0.054,1.013,0.025,0.041,0.005
20:03:13,0.493,0.274,0.048,0.0,0.116,0.053,1.015,0.019,0.023,-0.0
20:03:13,0.49,0.274,0.048,0.0,0.116,0.053,1.016,0.016,0.013,-0.002
20:03:13,0.49,0.275,0.049,0.0,0.116,0.054,1.018,0.012,0.004,-0.001
20:03:13,0.49,0.277,0.049,0.0,0.117,0.054,1.02,0.006,0.003,-0.003
20:03:13,0.488,0.275,0.049,0.0,0.117,0.054,1.021,0.004,0.002,-0.003
20:03:13,0.489,0.276,0.048,0.0,0.117,0.054,1.023,-0.004,0.003,-0.001
20:03:13,0.491,0.274,0.048,0.0,0.114,0.055,1.02,-0.007,0.014,0.006
20:03:13,0.483,0.275,0.048,0.0,0.116,0.055,1.023,-0.003,-0.001,0.005
20:03:13,0.483,0.277,0.048,0.0,0.117,0.054,1.022,-0.0,0.002,0.004
20:03:13,0.485,0.275,0.048,0.0,0.117,0.055,1.022,-0.0,-0.001,0.007
20:03:13,0.489,0.277,0.048,0.0,0.116,0.054,1.022,-0.001,-0.0,0.002
20:03:13,0.487,0.275,0.049,0.0,0.117,0.054,1.022,0.001,0.001,-0.005
20:03:13,0.488,0.276,0.049,0.0,0.116,0.054,1.021,0.003,0.005,-0.006
20:03:13,0.487,0.274,0.049,0.0,0.116,0.054,1.022,0.003,0.005,-0.005
20:03:13,0.49,0.273,0.049,0.0,0.116,0.054,1.024,-0.001,0.002,-0.0
20:03:13,0.488,0.276,0.049,0.0,0.116,0.054,1.025,0.0,0.002,0.001
20:03:13,0.49,0.275,0.048,0.0,0.117,0.053,1.027,-0.01,0.004,0.001
20:03:13,0.492,0.272,0.048,0.0,0.116,0.055,1.028,-0.004,0.002,-0.003
20:03:13,0.492,0.273,0.048,0.0,0.116,0.054,1.027,-0.003,0.008,-0.002
20:03:13,0.495,0.276,0.049,0.0,0.115,0.054,1.027,-0.002,0.011,-0.002
20:03:13,0.494,0.273,0.048,0.0,0.117,0.054,1.026,-0.003,0.007,-0.002
20:03:13,0.497,0.275,0.048,0.0,0.116,0.054,1.025,0.0,0.004,0.004
20:03:14,0.497,0.276,0.049,0.0,0.117,0.055,1.025,0.005,-0.0,-0.002
20:03:14,0.495,0.274,0.049,0.0,0.116,0.055,1.024,-0.002,-0.003,-0.0
20:03:14,0.492,0.273,0.048,0.0,0.115,0.055,1.023,-0.01,-0.007,0.0
20:03:14,0.492,0.274,0.048,0.0,0.116,0.056,1.022,-0.013,-0.008,0.002
20:03:14,0.491,0.273,0.048,0.0,0.116,0.057,1.022,-0.009,-0.009,0.0
20:03:14,0.491,0.261,0.048,0.0,0.116,0.056,1.022,-0.009,-0.011,0.001
20:03:14,0.473,0.265,0.048,0.0,0.116,0.054,1.025,-0.006,-0.008,-0.001
20:03:14,0.476,0.267,0.048,0.0,0.115,0.055,1.024,-0.004,-0.006,-0.002
20:03:14,0.48,0.27,0.049,0.0,0.116,0.054,1.023,-0.002,-0.007,0.0
20:03:14,0.485,0.272,0.049,0.0,0.116,0.054,1.023,0.001,-0.014,0.005
20:03:14,0.487,0.275,0.049,0.0,0.117,0.055,1.026,0.005,-0.008,0.007
20:03:14,0.488,0.274,0.048,0.0,0.118,0.055,1.025,0.003,0.001,0.008
20:03:14,0.488,0.275,0.048,0.0,0.116,0.055,1.024,0.002,0.002,0.005
20:03:14,0.489,0.274,0.048,0.0,0.117,0.055,1.023,0.004,0.002,0.006
20:03:14,0.489,0.267,0.048,0.0,0.117,0.055,1.025,-0.01,0.006,0.007
20:03:14,0.491,0.271,0.048,0.0,0.116,0.055,1.023,-0.009,0.011,0.009
20:03:15,0.491,0.271,0.048,0.0,0.118,0.056,1.024,-0.009,0.009,0.008
20:03:15,0.491,0.274,0.048,0.0,0.118,0.054,1.026,-0.006,0.001,0.008
20:03:15,0.493,0.275,0.049,0.0,0.118,0.055,1.026,-0.004,0.0,0.005
20:03:15,0.492,0.275,0.049,0.0,0.117,0.055,1.026,-0.002,-0.003,0.0
20:03:15,0.493,0.277,0.049,0.0,0.116,0.055,1.027,0.002,-0.005,-0.001
20:03:15,0.492,0.244,0.048,0.0,0.116,0.054,1.027,0.0,-0.007,-0.002
20:03:15,0.492,0.254,0.048,0.0,0.115,0.054,1.027,-0.001,-0.004,-0.001
20:03:15,0.491,0.26,0.048,0.0,0.114,0.055,1.026,-0.003,-0.004,-0.002
20:03:15,0.493,0.264,0.049,0.0,0.115,0.054,1.027,-0.005,-0.006,0.0
20:03:15,0.498,0.271,0.049,0.0,0.115,0.054,1.027,-0.006,-0.003,-0.003
20:03:15,0.498,0.272,0.049,0.0,0.116,0.055,1.028,-0.007,-0.006,-0.007
20:03:15,0.499,0.274,0.049,0.0,0.117,0.054,1.027,-0.006,-0.004,0.001
20:03:15,0.501,0.244,0.047,0.0,0.116,0.054,1.027,-0.008,-0.004,-0.003
20:03:15,0.497,0.254,0.048,0.0,0.116,0.052,1.025,-0.005,-0.007,-0.003
20:03:15,0.497,0.261,0.048,0.0,0.116,0.053,1.024,-0.01,-0.007,-0.001
20:03:15,0.499,0.265,0.048,0.0,0.115,0.054,1.023,-0.006,-0.005,-0.005
20:03:15,0.494,0.269,0.048,0.0,0.115,0.053,1.021,-0.0,0.001,-0.006
20:03:15,0.491,0.269,0.048,0.0,0.117,0.054,1.02,0.006,0.003,-0.002
20:03:15,0.497,0.275,0.048,0.0,0.117,0.053,1.019,0.005,0.001,-0.003
20:03:15,0.499,0.275,0.048,0.0,0.116,0.053,1.018,0.004,0.0,0.001
20:03:15,0.494,0.275,0.048,0.0,0.116,0.052,1.019,0.008,-0.003,0.001
20:03:15,0.493,0.276,0.048,0.0,0.116,0.053,1.02,0.004,-0.006,0.004
20:03:15,0.49,0.274,0.048,0.0,0.116,0.053,1.02,0.004,-0.009,0.007
20:03:15,0.492,0.275,0.049,0.0,0.116,0.053,1.02,0.004,-0.009,0.003
20:03:15,0.493,0.275,0.048,0.0,0.116,0.054,1.022,0.005,-0.007,0.003
20:03:15,0.494,0.277,0.049,0.0,0.117,0.053,1.021,0.0,-0.01,0.002
20:03:16,0.493,0.275,0.049,0.0,0.118,0.053,1.021,0.003,-0.004,-0.002
20:03:16,0.492,0.276,0.048,0.0,0.118,0.054,1.02,-0.002,-0.003,-0.005
20:03:16,0.49,0.276,0.048,0.0,0.117,0.054,1.022,-0.0,-0.001,-0.005
20:03:16,0.492,0.276,0.048,0.0,0.117,0.055,1.021,0.006,0.002,-0.003
20:03:16,0.493,0.276,0.048,0.0,0.116,0.055,1.022,0.004,0.005,0.001
20:03:16,0.496,0.275,0.048,0.0,0.116,0.054,1.023,0.003,0.004,-0.001
20:03:16,0.494,0.274,0.048,0.0,0.116,0.054,1.025,0.005,-0.0,-0.003
20:03:16,0.495,0.273,0.048,0.0,0.117,0.053,1.025,0.004,-0.004,-0.002
20:03:16,0.494,0.273,0.049,0.0,0.117,0.053,1.026,0.002,-0.005,-0.003
20:03:16,0.489,0.272,0.049,0.0,0.116,0.054,1.025,-0.001,-0.002,-0.004
20:03:16,0.487,0.273,0.048,0.0,0.117,0.055,1.026,-0.0,-0.004,-0.006
20:03:16,0.488,0.273,0.048,0.0,0.116,0.054,1.022,-0.0,-0.006,-0.002
20:03:16,0.487,0.274,0.048,0.0,0.116,0.054,1.024,0.001,0.0,-0.006
20:03:16,0.486,0.272,0.048,0.0,0.115,0.054,1.025,-0.001,-0.003,-0.008
20:03:16,0.491,0.275,0.049,0.0,0.115,0.054,1.024,-0.002,-0.002,-0.006
20:03:16,0.493,0.275,0.049,0.0,0.116,0.054,1.025,-0.002,-0.005,-0.005
20:03:16,0.494,0.274,0.049,0.0,0.116,0.054,1.023,-0.006,-0.003,-0.0
20:03:16,0.491,0.275,0.049,0.0,0.115,0.054,1.024,-0.001,-0.002,-0.002
20:03:16,0.493,0.275,0.049,0.0,0.116,0.053,1.023,-0.004,-0.002,-0.001
20:03:16,0.492,0.276,0.049,0.0,0.116,0.054,1.024,-0.002,-0.005,-0.003
20:03:16,0.491,0.274,0.048,0.0,0.116,0.054,1.025,-0.003,-0.005,-0.002
20:03:16,0.489,0.272,0.048,0.0,0.117,0.055,1.026,-0.002,-0.002,-0.0
20:03:17,0.487,0.272,0.048,0.0,0.116,0.055,1.026,-0.001,-0.002,0.0
20:03:17,0.49,0.276,0.048,0.0,0.117,0.055,1.025,-0.003,0.001,-0.004
20:03:17,0.488,0.275,0.048,0.0,0.116,0.055,1.026,0.001,0.002,-0.004
20:03:17,0.491,0.274,0.048,0.0,0.117,0.056,1.026,0.003,0.006,0.0
20:03:17,0.49,0.273,0.048,0.0,0.117,0.055,1.026,0.006,0.005,-0.002
20:03:17,0.49,0.274,0.048,0.0,0.117,0.055,1.027,0.005,0.007,-0.004
20:03:17,0.488,0.273,0.048,0.0,0.117,0.056,1.028,0.001,0.002,-0.004
20:03:17,0.491,0.276,0.049,0.0,0.116,0.055,1.027,-0.003,0.001,-0.009
20:03:17,0.483,0.277,0.049,0.0,0.116,0.054,1.03,-0.005,-0.003,-0.001
20:03:17,0.485,0.276,0.049,0.0,0.116,0.055,1.029,-0.001,-0.007,-0.001
20:03:17,0.49,0.279,0.049,0.0,0.117,0.055,1.027,-0.003,-0.004,-0.004
20:03:17,0.49,0.278,0.049,0.0,0.117,0.054,1.027,0.0,-0.002,-0.001
20:03:17,0.492,0.278,0.049,0.0,0.117,0.055,1.025,0.001,-0.001,-0.001
20:03:17,0.496,0.279,0.049,0.0,0.116,0.056,1.024,0.002,0.004,-0.001
20:03:17,0.496,0.277,0.049,0.0,0.116,0.056,1.02,0.005,0.008,-0.005
20:03:17,0.494,0.275,0.049,0.0,0.116,0.055,1.02,0.004,0.004,-0.002
20:03:17,0.495,0.275,0.049,0.0,0.116,0.056,1.019,0.004,0.004,-0.004
20:03:17,0.493,0.276,0.049,0.0,0.116,0.055,1.021,0.001,0.008,-0.001
20:03:17,0.492,0.276,0.049,0.0,0.117,0.055,1.022,0.003,0.005,0.002
20:03:17,0.5,0.278,0.049,0.0,0.117,0.054,1.021,0.003,0.004,0.001
20:03:17,0.495,0.277,0.049,0.0,0.116,0.053,1.021,0.002,0.006,0.002
20:03:17,0.493,0.275,0.049,0.0,0.116,0.054,1.022,0.004,0.009,0.002
20:03:18,0.49,0.276,0.049,0.0,0.116,0.055,1.022,0.009,0.007,0.004
20:03:18,0.49,0.274,0.049,0.0,0.117,0.054,1.022,0.006,0.007,0.006
20:03:18,0.49,0.275,0.049,0.0,0.117,0.055,1.023,0.005,0.004,0.0
20:03:18,0.486,0.275,0.049,0.0,0.118,0.055,1.025,0.005,0.005,-0.004
20:03:18,0.487,0.274,0.048,0.0,0.117,0.055,1.026,0.002,0.003,0.001
20:03:18,0.49,0.276,0.048,0.0,0.117,0.054,1.025,-0.001,0.005,-0.004
20:03:18,0.486,0.275,0.048,0.0,0.116,0.054,1.025,-0.005,0.003,-0.002
20:03:18,0.489,0.277,0.048,0.0,0.116,0.055,1.025,-0.003,0.002,-0.002
20:03:18,0.492,0.278,0.048,0.0,0.116,0.056,1.024,-0.003,0.002,-0.001
20:03:18,0.487,0.278,0.048,0.0,0.115,0.056,1.023,0.0,-0.001,0.002
20:03:18,0.488,0.277,0.048,0.0,0.115,0.055,1.023,-0.0,-0.0,-0.001
20:03:18,0.491,0.279,0.049,0.0,0.116,0.055,1.023,-0.006,-0.003,-0.007
20:03:18,0.492,0.276,0.049,0.0,0.115,0.055,1.022,-0.007,-0.005,-0.006
20:03:18,0.496,0.275,0.049,0.0,0.117,0.055,1.022,-0.004,-0.001,-0.007
20:03:18,0.496,0.275,0.049,0.0,0.116,0.055,1.021,-0.0,-0.004,0.001
20:03:18,0.492,0.276,0.049,0.0,0.116,0.055,1.02,0.001,-0.003,0.003
20:03:18,0.494,0.274,0.049,0.0,0.117,0.054,1.021,0.004,-0.003,0.003
20:03:18,0.496,0.278,0.048,0.0,0.117,0.055,1.021,0.004,-0.007,0.006
20:03:18,0.501,0.277,0.048,0.0,0.117,0.054,1.022,0.004,-0.007,0.007
20:03:18,0.499,0.28,0.048,0.0,0.116,0.055,1.023,0.004,-0.005,0.013
20:03:18,0.497,0.279,0.049,0.0,0.116,0.055,1.024,0.003,-0.002,0.012
20:03:18,0.495,0.278,0.049,0.0,0.117,0.054,1.024,0.004,-0.003,0.006
20:03:19,0.495,0.276,0.048,0.0,0.118,0.054,1.023,-0.002,-0.006,0.002
20:03:19,0.494,0.276,0.048,0.0,0.117,0.054,1.025,-0.0,-0.004,0.003
20:03:19,0.493,0.275,0.048,0.0,0.116,0.054,1.025,-0.004,-0.006,-0.001
20:03:19,0.49,0.274,0.048,0.0,0.116,0.053,1.025,-0.001,-0.003,-0.008
20:03:19,0.488,0.275,0.048,0.0,0.116,0.053,1.025,-0.005,-0.005,-0.008
20:03:19,0.489,0.274,0.048,0.0,0.117,0.054,1.026,-0.002,-0.002,-0.001
20:03:19,0.495,0.276,0.048,0.0,0.118,0.053,1.028,-0.003,-0.003,-0.003
20:03:19,0.495,0.276,0.049,0.0,0.117,0.054,1.029,-0.005,-0.003,0.003
20:03:19,0.482,0.276,0.049,0.0,0.117,0.054,1.027,-0.004,-0.006,0.001
20:03:19,0.486,0.276,0.049,0.0,0.116,0.054,1.026,-0.004,-0.005,-0.003
20:03:19,0.489,0.278,0.049,0.0,0.117,0.053,1.025,-0.009,0.0,-0.002
20:03:19,0.492,0.277,0.048,0.0,0.117,0.054,1.025,-0.004,0.004,-0.004
20:03:19,0.493,0.277,0.048,0.0,0.117,0.054,1.027,0.003,-0.003,-0.004
20:03:19,0.492,0.277,0.048,0.0,0.116,0.054,1.025,0.003,-0.023,-0.004
20:03:19,0.492,0.278,0.049,0.0,0.116,0.054,1.027,0.005,-0.023,-0.002
20:03:19,0.491,0.279,0.049,0.0,0.115,0.054,1.029,0.002,-0.011,-0.002
20:03:19,0.491,0.278,0.049,0.0,0.115,0.054,1.03,-0.008,-0.003,0.002
20:03:19,0.489,0.276,0.049,0.0,0.117,0.054,1.033,-0.02,-0.005,0.0
20:03:19,0.493,0.275,0.049,0.0,0.119,0.054,1.032,-0.011,0.006,0.0
20:03:19,0.49,0.274,0.049,0.0,0.118,0.054,1.034,-0.011,0.008,0.002
20:03:19,0.49,0.273,0.049,0.0,0.119,0.053,1.033,-0.013,0.006,-0.002
20:03:19,0.49,0.276,0.049,0.0,0.118,0.055,1.032,-0.007,0.007,-0.001
20:03:20,0.49,0.276,0.049,0.0,0.119,0.056,1.031,-0.005,0.004,0.003
20:03:20,0.49,0.274,0.049,0.0,0.118,0.057,1.029,-0.0,0.001,0.001
20:03:20,0.482,0.274,0.049,0.0,0.117,0.056,1.028,-0.002,-0.001,-0.0
20:03:20,0.481,0.276,0.049,0.0,0.117,0.055,1.026,0.002,-0.003,0.001
20:03:20,0.481,0.275,0.049,0.0,0.117,0.055,1.025,0.003,-0.008,0.003
20:03:20,0.484,0.275,0.049,0.0,0.117,0.054,1.026,-0.007,-0.009,0.002
20:03:20,0.492,0.277,0.049,0.0,0.118,0.054,1.028,-0.006,-0.014,0.003
20:03:20,0.491,0.277,0.049,0.0,0.118,0.054,1.028,-0.006,-0.015,-0.002
20:03:20,0.491,0.277,0.049,0.0,0.117,0.054,1.027,-0.01,-0.013,-0.004
20:03:20,0.493,0.275,0.049,0.0,0.118,0.055,1.026,-0.003,-0.011,0.001
20:03:20,0.496,0.275,0.049,0.0,0.117,0.054,1.023,0.007,-0.017,-0.006
20:03:20,0.498,0.276,0.049,0.0,0.116,0.051,1.019,0.007,-0.001,-0.004
20:03:20,0.496,0.274,0.049,0.0,0.116,0.051,1.017,0.006,0.01,-0.0
20:03:20,0.492,0.277,0.049,0.0,0.117,0.052,1.016,0.007,0.009,0.004
20:03:20,0.495,0.276,0.049,0.0,0.117,0.053,1.016,0.008,0.006,0.005
20:03:20,0.496,0.276,0.049,0.0,0.117,0.054,1.017,0.008,0.006,-0.004
20:03:20,0.494,0.278,0.049,0.0,0.117,0.054,1.02,0.005,0.01,-0.01
20:03:20,0.467,0.277,0.048,0.0,0.116,0.053,1.021,0.005,0.012,-0.007
20:03:20,0.47,0.277,0.048,0.0,0.117,0.054,1.021,0.005,0.011,-0.005
20:03:20,0.478,0.275,0.048,0.0,0.117,0.054,1.023,0.004,0.012,-0.001
20:03:20,0.478,0.273,0.048,0.0,0.117,0.055,1.023,0.003,0.009,-0.003
20:03:21,0.481,0.274,0.048,0.0,0.117,0.054,1.022,-0.002,0.008,0.001
20:03:21,0.49,0.275,0.049,0.0,0.118,0.054,1.023,-0.003,0.01,0.002
20:03:21,0.494,0.277,0.048,0.0,0.119,0.053,1.023,-0.002,0.015,-0.0
20:03:21,0.495,0.275,0.048,0.0,0.118,0.054,1.023,-0.004,0.016,-0.001
20:03:21,0.495,0.275,0.048,0.0,0.117,0.054,1.022,-0.002,0.015,0.001
20:03:21,0.496,0.277,0.049,0.0,0.117,0.056,1.022,0.002,0.013,0.0
20:03:21,0.492,0.275,0.049,0.0,0.116,0.055,1.023,-0.002,0.009,-0.001
20:03:21,0.495,0.276,0.049,0.0,0.117,0.056,1.024,0.001,0.006,-0.004
20:03:21,0.494,0.276,0.048,0.0,0.116,0.056,1.024,-0.002,0.007,0.001
20:03:21,0.497,0.276,0.048,0.0,0.116,0.055,1.024,0.001,0.004,0.001
20:03:21,0.503,0.281,0.047,0.0,0.114,0.056,1.024,-0.001,0.005,0.006
20:03:21,0.499,0.279,0.048,0.0,0.115,0.055,1.025,0.001,0.005,0.001
20:03:21,0.502,0.282,0.048,0.0,0.116,0.055,1.026,0.0,0.002,-0.0
20:03:21,0.501,0.278,0.048,0.0,0.116,0.055,1.027,0.004,0.004,-0.002
20:03:21,0.499,0.276,0.048,0.0,0.118,0.055,1.028,0.0,-0.006,0.001
20:03:21,0.499,0.276,0.048,0.0,0.119,0.054,1.029,-0.0,-0.01,0.004
20:03:21,0.498,0.251,0.048,0.0,0.117,0.055,1.031,-0.005,-0.009,0.002
20:03:21,0.496,0.258,0.048,0.0,0.116,0.056,1.031,-0.005,-0.012,0.002
20:03:21,0.496,0.264,0.048,0.0,0.117,0.054,1.031,-0.009,-0.012,0.003
20:03:21,0.492,0.268,0.048,0.0,0.117,0.054,1.028,-0.007,-0.008,0.003
20:03:21,0.492,0.269,0.049,0.0,0.117,0.054,1.027,-0.007,-0.003,0.001
20:03:21,0.485,0.268,0.048,0.0,0.115,0.054,1.025,-0.001,0.002,-0.001
20:03:22,0.485,0.269,0.048,0.0,0.115,0.054,1.023,-0.001,0.009,-0.004
20:03:22,0.488,0.273,0.048,0.0,0.114,0.055,1.022,-0.002,-0.0,-0.005
20:03:22,0.487,0.274,0.048,0.0,0.115,0.055,1.023,-0.006,-0.001,0.0
20:03:22,0.478,0.272,0.048,0.0,0.116,0.055,1.022,-0.002,-0.005,0.001
20:03:22,0.482,0.273,0.048,0.0,0.114,0.055,1.022,-0.001,-0.004,0.005
20:03:22,0.486,0.274,0.048,0.0,0.115,0.055,1.023,0.001,-0.003,0.009
20:03:22,0.469,0.273,0.048,0.0,0.116,0.056,1.023,-0.0,-0.001,0.007
20:03:22,0.48,0.276,0.048,0.0,0.115,0.055,1.021,-0.001,0.006,0.007
20:03:22,0.491,0.279,0.049,0.0,0.115,0.055,1.023,-0.001,0.006,0.003
20:03:22,0.494,0.278,0.049,0.0,0.116,0.055,1.026,-0.005,0.003,-0.001
20:03:22,0.461,0.278,0.049,0.0,0.115,0.054,1.027,-0.004,-0.002,-0.001
20:03:22,0.468,0.276,0.049,0.0,0.115,0.055,1.027,-0.0,0.003,0.003
20:03:22,0.479,0.276,0.049,0.0,0.115,0.055,1.025,0.006,-0.006,0.004
20:03:22,0.484,0.276,0.049,0.0,0.115,0.055,1.024,0.003,-0.01,-0.0
20:03:22,0.456,0.275,0.046,0.0,0.115,0.054,1.03,-0.006,-0.015,0.002
20:03:22,0.466,0.274,0.047,0.0,0.115,0.053,1.033,-0.016,-0.013,-0.001
20:03:22,0.473,0.274,0.048,0.0,0.117,0.055,1.033,-0.019,0.003,0.001
20:03:22,0.476,0.274,0.048,0.0,0.116,0.046,1.034,-0.037,0.004,0.004
20:03:22,0.482,0.274,0.048,0.0,0.112,0.047,1.028,-0.039,0.021,0.001
20:03:22,0.483,0.273,0.049,0.0,0.11,0.046,1.024,-0.031,0.027,0.003
20:03:22,0.487,0.274,0.049,0.0,0.112,0.047,1.022,-0.025,0.016,0.004
20:03:22,0.49,0.276,0.048,0.0,0.114,0.049,1.019,-0.02,0.002,-0.002
20:03:23,0.49,0.276,0.048,0.0,0.116,0.05,1.019,-0.017,-0.013,-0.003
20:03:23,0.488,0.275,0.048,0.0,0.116,0.052,1.016,-0.016,-0.017,-0.004
20:03:23,0.493,0.274,0.049,0.0,0.117,0.053,1.016,-0.012,-0.022,-0.002
20:03:23,0.492,0.276,0.049,0.0,0.118,0.054,1.014,-0.007,-0.017,-0.001
20:03:23,0.489,0.276,0.049,0.0,0.119,0.054,1.013,-0.001,-0.016,-0.003
20:03:23,0.492,0.276,0.049,0.0,0.118,0.054,1.015,0.002,-0.015,-0.002
20:03:23,0.495,0.272,0.049,0.0,0.118,0.053,1.016,0.008,-0.009,0.001
20:03:23,0.486,0.269,0.049,0.0,0.118,0.052,1.021,0.002,-0.004,0.0
20:03:23,0.489,0.269,0.049,0.0,0.117,0.053,1.022,-0.004,-0.007,-0.0
20:03:23,0.487,0.272,0.049,0.0,0.117,0.054,1.024,-0.006,-0.003,-0.001
20:03:23,0.488,0.273,0.049,0.0,0.117,0.056,1.025,-0.003,-0.002,-0.001
20:03:23,0.489,0.274,0.049,0.0,0.118,0.057,1.027,-0.002,-0.002,-0.002
20:03:23,0.491,0.275,0.049,0.0,0.118,0.056,1.028,-0.003,-0.005,-0.005
20:03:23,0.491,0.274,0.049,0.0,0.117,0.056,1.029,0.001,-0.009,-0.003
20:03:23,0.491,0.275,0.049,0.0,0.117,0.056,1.028,-0.003,-0.007,-0.004
20:03:23,0.49,0.274,0.049,0.0,0.116,0.055,1.028,-0.003,-0.007,-0.001
20:03:23,0.492,0.276,0.049,0.0,0.116,0.055,1.029,-0.002,-0.005,-0.002
20:03:23,0.496,0.278,0.049,0.0,0.118,0.053,1.026,-0.005,-0.007,-0.002
20:03:23,0.494,0.277,0.049,0.0,0.118,0.053,1.027,-0.007,-0.006,-0.002
20:03:23,0.493,0.277,0.049,0.0,0.117,0.053,1.027,-0.003,-0.005,-0.002
20:03:23,0.496,0.277,0.049,0.0,0.119,0.055,1.032,0.03,0.011,0.003
20:03:23,0.492,0.275,0.048,0.0,0.118,0.054,1.028,0.009,0.011,0.002
20:03:24,0.494,0.276,0.048,0.0,0.116,0.054,1.023,0.002,0.007,0.0
20:03:24,0.492,0.276,0.048,0.0,0.115,0.054,1.022,0.002,-0.005,0.002
20:03:24,0.494,0.274,0.048,0.0,0.115,0.054,1.019,0.001,-0.011,-0.0
20:03:24,0.493,0.275,0.048,0.0,0.114,0.054,1.018,0.004,-0.013,-0.003
20:03:24,0.496,0.275,0.048,0.0,0.115,0.054,1.019,0.002,-0.011,-0.003
20:03:24,0.494,0.274,0.048,0.0,0.113,0.053,1.021,-0.008,-0.015,-0.002
20:03:24,0.497,0.275,0.048,0.0,0.113,0.054,1.022,-0.001,-0.003,-0.003
20:03:24,0.495,0.275,0.049,0.0,0.115,0.054,1.022,0.004,-0.009,-0.005
20:03:24,0.493,0.274,0.049,0.0,0.116,0.055,1.022,0.003,-0.011,-0.004
20:03:24,0.494,0.275,0.049,0.0,0.116,0.054,1.023,0.001,-0.006,-0.007
20:03:24,0.495,0.277,0.049,0.0,0.115,0.054,1.024,-0.008,-0.009,-0.002
20:03:24,0.496,0.275,0.049,0.0,0.116,0.054,1.024,-0.004,-0.007,-0.0
20:03:24,0.496,0.276,0.049,0.0,0.116,0.054,1.024,-0.001,0.002,-0.006
20:03:24,0.496,0.279,0.049,0.0,0.116,0.054,1.026,-0.002,-0.003,0.001
20:03:24,0.496,0.278,0.049,0.0,0.116,0.055,1.025,0.0,-0.005,-0.002
20:03:24,0.5,0.279,0.049,0.0,0.115,0.055,1.025,-0.0,-0.004,0.004
20:03:24,0.499,0.278,0.048,0.0,0.115,0.054,1.027,0.003,0.001,0.001
20:03:24,0.499,0.278,0.048,0.0,0.118,0.056,1.027,0.004,-0.001,-0.001
20:03:24,0.498,0.276,0.049,0.0,0.119,0.056,1.023,-0.0,0.013,-0.002
20:03:24,0.496,0.274,0.049,0.0,0.118,0.058,1.023,0.009,0.001,-0.001
20:03:24,0.494,0.274,0.049,0.0,0.118,0.057,1.022,0.011,0.0,-0.004
20:03:25,0.495,0.276,0.049,0.0,0.118,0.057,1.025,0.009,-0.005,-0.002
20:03:25,0.495,0.275,0.049,0.0,0.118,0.058,1.026,0.008,-0.004,0.0
20:03:25,0.494,0.275,0.049,0.0,0.117,0.057,1.026,0.002,-0.004,-0.002
20:03:25,0.499,0.272,0.049,0.0,0.116,0.056,1.028,-0.005,-0.008,-0.005
20:03:25,0.498,0.277,0.049,0.0,0.116,0.056,1.029,-0.006,-0.009,-0.006
20:03:25,0.5,0.277,0.049,0.0,0.117,0.055,1.029,-0.009,-0.011,-0.005
20:03:25,0.495,0.277,0.049,0.0,0.117,0.053,1.03,-0.013,-0.011,-0.002
20:03:25,0.495,0.276,0.049,0.0,0.117,0.055,1.029,-0.011,-0.01,-0.003
20:03:25,0.498,0.278,0.049,0.0,0.116,0.055,1.026,-0.01,-0.008,-0.001
20:03:25,0.495,0.277,0.048,0.0,0.116,0.05,1.022,-0.012,0.006,-0.001
20:03:25,0.494,0.277,0.048,0.0,0.115,0.05,1.021,-0.01,0.001,-0.005
20:03:25,0.489,0.277,0.048,0.0,0.117,0.051,1.016,-0.007,0.017,-0.001
20:03:25,0.481,0.277,0.048,0.0,0.118,0.051,1.015,-0.009,0.011,-0.003
20:03:25,0.482,0.277,0.048,0.0,0.117,0.051,1.002,0.005,0.027,-0.005
20:03:25,0.484,0.278,0.049,0.0,0.114,0.052,0.968,0.03,0.092,-0.003
20:03:25,0.488,0.276,0.049,0.0,0.112,0.049,0.949,0.061,0.136,-0.003
20:03:25,0.491,0.276,0.049,0.0,0.112,0.05,0.944,0.096,0.096,-0.002
20:03:25,0.492,0.276,0.049,0.0,0.114,0.05,0.951,0.1,0.043,-0.003
20:03:25,0.492,0.275,0.049,0.0,0.116,0.052,0.968,0.092,0.005,-0.003
20:03:25,0.487,0.272,0.048,0.0,0.116,0.052,0.984,0.074,-0.004,-0.003
20:03:25,0.486,0.273,0.048,0.0,0.116,0.053,0.997,0.056,0.001,-0.004
20:03:25,0.489,0.274,0.048,0.0,0.115,0.052,1.006,0.043,0.009,-0.007
20:03:26,0.49,0.273,0.049,0.0,0.117,0.054,1.015,0.029,0.008,-0.004
20:03:26,0.49,0.273,0.049,0.0,0.116,0.054,1.019,0.017,0.007,-0.008
20:03:26,0.49,0.274,0.048,0.0,0.116,0.055,1.023,0.008,0.007,-0.007
20:03:26,0.488,0.275,0.048,0.0,0.116,0.055,1.024,0.005,0.008,-0.008
20:03:26,0.491,0.275,0.048,0.0,0.116,0.055,1.025,0.005,0.003,-0.008
20:03:26,0.494,0.276,0.048,0.0,0.116,0.053,1.026,-0.0,0.001,-0.004
20:03:26,0.493,0.274,0.048,0.0,0.115,0.054,1.026,-0.002,-0.004,0.001
20:03:26,0.488,0.273,0.048,0.0,0.115,0.055,1.026,-0.002,-0.003,0.002
20:03:26,0.489,0.274,0.048,0.0,0.115,0.055,1.025,-0.002,-0.005,-0.003
20:03:26,0.489,0.273,0.048,0.0,0.114,0.054,1.023,0.001,-0.007,-0.002
20:03:26,0.493,0.276,0.049,0.0,0.115,0.055,1.022,0.001,-0.001,-0.002
20:03:26,0.492,0.273,0.049,0.0,0.114,0.055,1.021,-0.002,0.004,0.004
20:03:26,0.492,0.272,0.049,0.0,0.114,0.054,1.021,-0.003,0.005,0.002
20:03:26,0.489,0.272,0.049,0.0,0.115,0.053,1.021,0.003,0.0,0.0
20:03:26,0.462,0.266,0.049,0.0,0.115,0.053,1.022,-0.0,-0.001,0.003
20:03:26,0.472,0.268,0.049,0.0,0.115,0.055,1.023,-0.001,-0.001,0.001
20:03:26,0.48,0.269,0.049,0.0,0.115,0.055,1.021,0.002,-0.004,0.004
20:03:26,0.483,0.269,0.049,0.0,0.115,0.055,1.021,0.009,-0.004,0.001
20:03:26,0.485,0.272,0.049,0.0,0.117,0.056,1.024,0.011,0.002,0.004
20:03:26,0.482,0.271,0.048,0.0,0.117,0.056,1.024,0.009,0.005,-0.003
20:03:26,0.483,0.273,0.048,0.0,0.117,0.055,1.023,0.004,0.006,-0.002
20:03:26,0.487,0.274,0.048,0.0,0.117,0.055,1.022,0.004,0.008,-0.004
20:03:27,0.488,0.275,0.048,0.0,0.116,0.056,1.023,0.009,0.009,-0.005
20:03:27,0.489,0.275,0.048,0.0,0.117,0.056,1.024,0.003,0.006,-0.002
20:03:27,0.481,0.271,0.048,0.0,0.117,0.055,1.022,-0.001,0.009,0.001
20:03:27,0.45,0.265,0.048,0.0,0.116,0.055,1.02,-0.0,0.011,0.0
20:03:27,0.458,0.268,0.048,0.0,0.115,0.055,1.018,0.002,0.017,-0.002
20:03:27,0.468,0.271,0.048,0.0,0.115,0.055,1.018,0.001,0.009,-0.003
20:03:27,0.48,0.271,0.048,0.0,0.116,0.054,1.018,0.003,0.012,-0.004
20:03:27,0.483,0.268,0.048,0.0,0.117,0.054,1.018,0.009,0.011,-0.001
20:03:27,0.491,0.272,0.048,0.0,0.118,0.053,1.018,0.003,0.01,-0.001
20:03:27,0.491,0.272,0.048,0.0,0.118,0.054,1.019,0.006,0.006,0.004
20:03:27,0.489,0.273,0.048,0.0,0.117,0.054,1.02,0.005,0.003,0.005
20:03:27,0.491,0.274,0.048,0.0,0.117,0.054,1.021,0.004,-0.0,0.001
20:03:27,0.493,0.275,0.044,0.0,0.117,0.054,1.021,0.001,0.003,0.0
20:03:27,0.492,0.274,0.046,0.0,0.117,0.055,1.021,-0.002,0.007,0.002
20:03:27,0.493,0.275,0.045,0.0,0.117,0.056,1.022,-0.0,0.001,-0.0
20:03:27,0.494,0.274,0.046,0.0,0.117,0.056,1.025,0.001,-0.003,-0.002
20:03:27,0.493,0.273,0.047,0.0,0.117,0.056,1.025,0.007,-0.005,0.0
20:03:27,0.488,0.274,0.047,0.0,0.117,0.056,1.025,0.007,-0.004,-0.002
20:03:27,0.489,0.273,0.048,0.0,0.117,0.056,1.025,0.002,-0.003,-0.0
20:03:27,0.489,0.276,0.048,0.0,0.116,0.055,1.025,0.0,-0.003,0.0
20:03:27,0.491,0.274,0.048,0.0,0.117,0.054,1.025,-0.007,-0.001,-0.003
20:03:28,0.491,0.273,0.048,0.0,0.118,0.055,1.025,-0.001,-0.005,-0.005
20:03:28,0.493,0.274,0.048,0.0,0.117,0.055,1.025,0.004,-0.005,-0.004
20:03:28,0.492,0.275,0.048,0.0,0.117,0.056,1.024,-0.002,-0.005,-0.006
20:03:28,0.487,0.274,0.049,0.0,0.116,0.056,1.024,-0.005,-0.008,-0.005
20:03:28,0.484,0.273,0.049,0.0,0.117,0.056,1.025,0.001,-0.006,-0.006
20:03:28,0.49,0.274,0.049,0.0,0.117,0.055,1.027,0.004,-0.001,-0.009
20:03:28,0.488,0.273,0.048,0.0,0.116,0.055,1.027,-0.001,-0.004,-0.007
20:03:28,0.491,0.274,0.048,0.0,0.115,0.055,1.025,0.0,-0.001,-0.007
20:03:28,0.49,0.273,0.048,0.0,0.115,0.055,1.024,-0.001,0.001,-0.002
20:03:28,0.49,0.273,0.048,0.0,0.115,0.056,1.025,-0.005,0.002,0.003
20:03:28,0.488,0.274,0.048,0.0,0.117,0.057,1.025,-0.003,0.002,0.003
20:03:28,0.489,0.275,0.048,0.0,0.117,0.056,1.024,0.0,0.007,0.002
20:03:28,0.489,0.274,0.048,0.0,0.118,0.056,1.025,0.003,0.005,0.001
20:03:28,0.489,0.273,0.048,0.0,0.117,0.055,1.025,0.008,0.006,-0.002
20:03:28,0.49,0.272,0.048,0.0,0.116,0.055,1.024,0.01,0.002,-0.002
20:03:28,0.492,0.274,0.048,0.0,0.117,0.055,1.024,0.005,0.001,-0.006
20:03:28,0.483,0.273,0.048,0.0,0.117,0.055,1.024,0.009,0.0,-0.003
20:03:28,0.485,0.272,0.048,0.0,0.117,0.055,1.024,0.006,-0.0,0.001
20:03:28,0.487,0.274,0.048,0.0,0.116,0.056,1.028,0.008,0.007,0.004
20:03:28,0.488,0.274,0.048,0.0,0.116,0.056,1.028,0.003,0.008,0.006
20:03:28,0.486,0.275,0.048,0.0,0.116,0.055,1.028,0.003,0.01,0.004
20:03:29,0.488,0.274,0.048,0.0,0.116,0.055,1.024,-0.0,0.003,0.001
20:03:29,0.449,0.273,0.048,0.0,0.116,0.054,1.024,0.003,0.004,-0.003
20:03:29,0.463,0.273,0.049,0.0,0.117,0.054,1.021,0.003,0.003,-0.005
20:03:29,0.471,0.272,0.049,0.0,0.116,0.054,1.023,0.005,0.005,-0.003
20:03:29,0.479,0.273,0.049,0.0,0.117,0.055,1.022,0.003,0.005,0.002
20:03:29,0.482,0.274,0.048,0.0,0.117,0.055,1.022,0.01,0.002,-0.003
20:03:29,0.491,0.276,0.048,0.0,0.117,0.054,1.023,0.01,0.003,-0.004
20:03:29,0.488,0.278,0.048,0.0,0.118,0.054,1.023,0.004,0.002,-0.002
20:03:29,0.489,0.276,0.048,0.0,0.118,0.053,1.023,0.006,-0.001,-0.004
20:03:29,0.491,0.276,0.048,0.0,0.117,0.053,1.024,0.002,-0.002,-0.002
20:03:29,0.489,0.275,0.048,0.0,0.117,0.054,1.024,-0.001,-0.008,-0.001
20:03:29,0.491,0.272,0.048,0.0,0.116,0.054,1.024,-0.003,-0.004,-0.007
20:03:29,0.491,0.272,0.048,0.0,0.117,0.053,1.022,-0.008,0.002,-0.006
20:03:29,0.491,0.273,0.048,0.0,0.116,0.054,1.021,-0.001,0.002,-0.004
20:03:29,0.492,0.273,0.048,0.0,0.115,0.053,1.021,0.004,0.001,0.003
20:03:29,0.496,0.275,0.049,0.0,0.115,0.053,1.022,0.009,0.006,-0.005
20:03:29,0.496,0.274,0.048,0.0,0.114,0.053,1.021,0.006,0.004,-0.001
20:03:29,0.494,0.275,0.048,0.0,0.115,0.054,1.021,0.003,0.004,0.003
20:03:29,0.495,0.274,0.048,0.0,0.115,0.054,1.023,0.003,0.002,0.002
20:03:29,0.493,0.273,0.048,0.0,0.115,0.053,1.025,0.003,-0.002,-0.001
20:03:29,0.492,0.276,0.048,0.0,0.115,0.053,1.026,-0.001,-0.002,-0.0
20:03:29,0.49,0.274,0.048,0.0,0.115,0.055,1.028,-0.0,-0.003,0.003
20:03:29,0.49,0.273,0.048,0.0,0.114,0.054,1.028,0.001,-0.007,0.001
20:03:30,0.49,0.273,0.048,0.0,0.115,0.055,1.027,-0.004,-0.007,0.004
20:03:30,0.492,0.274,0.048,0.0,0.115,0.055,1.026,-0.004,-0.008,0.002
20:03:30,0.491,0.273,0.048,0.0,0.114,0.056,1.025,-0.008,-0.007,0.002
20:03:30,0.495,0.274,0.048,0.0,0.114,0.055,1.025,-0.01,-0.011,-0.003
20:03:30,0.495,0.275,0.048,0.0,0.114,0.055,1.027,-0.008,-0.009,0.003
20:03:30,0.496,0.251,0.047,0.0,0.116,0.055,1.026,-0.003,-0.011,0.002
20:03:30,0.498,0.259,0.048,0.0,0.116,0.056,1.026,-0.007,-0.007,-0.003
20:03:30,0.504,0.267,0.048,0.0,0.115,0.055,1.025,0.001,-0.009,-0.002
20:03:30,0.502,0.27,0.048,0.0,0.115,0.056,1.024,-0.006,-0.004,-0.003
20:03:30,0.498,0.272,0.048,0.0,0.116,0.056,1.024,-0.008,-0.002,-0.006
20:03:30,0.498,0.272,0.048,0.0,0.117,0.055,1.025,-0.01,0.002,-0.005
20:03:30,0.493,0.273,0.048,0.0,0.117,0.055,1.024,-0.01,-0.003,-0.008
20:03:30,0.49,0.276,0.049,0.0,0.116,0.055,1.024,-0.004,-0.004,-0.007
20:03:30,0.49,0.276,0.049,0.0,0.116,0.054,1.024,-0.001,-0.005,-0.007
20:03:30,0.494,0.276,0.049,0.0,0.116,0.054,1.021,-0.001,-0.003,-0.007
20:03:30,0.493,0.276,0.049,0.0,0.116,0.054,1.021,0.0,-0.003,-0.006
20:03:30,0.47,0.267,0.045,0.0,0.115,0.053,1.023,-0.005,0.001,-0.01
20:03:30,0.476,0.27,0.046,0.0,0.117,0.054,1.026,-0.002,0.005,-0.007
20:03:30,0.48,0.272,0.047,0.0,0.117,0.054,1.026,-0.003,-0.001,-0.006
20:03:30,0.485,0.272,0.047,0.0,0.117,0.055,1.024,-0.001,0.0,-0.002
20:03:30,0.487,0.273,0.048,0.0,0.118,0.055,1.024,-0.005,0.001,0.001
20:03:30,0.482,0.274,0.048,0.0,0.117,0.055,1.025,-0.004,-0.001,0.0
20:03:31,0.486,0.275,0.048,0.0,0.117,0.055,1.026,-0.004,0.001,-0.002
20:03:31,0.489,0.275,0.048,0.0,0.117,0.054,1.028,0.002,-0.005,-0.002
20:03:31,0.492,0.277,0.048,0.0,0.117,0.055,1.03,-0.002,-0.003,0.006
20:03:31,0.491,0.277,0.048,0.0,0.117,0.055,1.031,-0.006,-0.01,0.008
20:03:31,0.493,0.277,0.048,0.0,0.118,0.055,1.031,-0.008,-0.012,0.003
20:03:31,0.456,0.269,0.048,0.0,0.119,0.055,1.029,-0.008,-0.001,0.007
20:03:31,0.472,0.271,0.048,0.0,0.119,0.055,1.027,-0.001,0.008,0.003
20:03:31,0.478,0.271,0.048,0.0,0.117,0.055,1.023,-0.0,0.01,0.001
20:03:31,0.481,0.273,0.048,0.0,0.117,0.055,1.021,0.004,0.004,0.001
20:03:31,0.486,0.274,0.048,0.0,0.118,0.056,1.021,-0.003,0.007,0.004
20:03:31,0.489,0.273,0.048,0.0,0.118,0.056,1.02,-0.007,0.013,0.0
20:03:31,0.491,0.273,0.048,0.0,0.117,0.056,1.017,-0.007,0.015,0.0
20:03:31,0.491,0.272,0.048,0.0,0.117,0.056,1.016,-0.002,0.003,0.005
20:03:31,0.493,0.273,0.048,0.0,0.116,0.055,1.014,-0.002,-0.004,-0.001
20:03:31,0.494,0.274,0.048,0.0,0.117,0.056,1.014,-0.0,-0.011,-0.0
20:03:31,0.493,0.273,0.048,0.0,0.116,0.055,1.012,0.003,-0.007,0.003
20:03:31,0.496,0.274,0.048,0.0,0.115,0.055,1.012,0.001,-0.009,0.002
20:03:31,0.496,0.275,0.048,0.0,0.116,0.055,1.015,0.004,-0.002,-0.001
20:03:31,0.494,0.275,0.048,0.0,0.115,0.053,1.015,0.004,0.008,-0.001
20:03:31,0.489,0.271,0.048,0.0,0.116,0.057,1.018,0.012,0.006,0.0
20:03:31,0.491,0.271,0.048,0.0,0.119,0.059,1.025,0.014,-0.011,-0.002
20:03:32,0.491,0.271,0.048,0.0,0.12,0.059,1.029,0.006,-0.023,-0.003
20:03:32,0.495,0.274,0.049,0.0,0.12,0.059,1.029,0.006,-0.014,-0.004
20:03:32,0.497,0.275,0.049,0.0,0.119,0.059,1.029,0.008,-0.005,-0.006
20:03:32,0.497,0.277,0.049,0.0,0.12,0.057,1.03,0.001,-0.009,-0.008
20:03:32,0.461,0.277,0.049,0.0,0.118,0.057,1.03,-0.001,-0.008,-0.004
20:03:32,0.466,0.277,0.049,0.0,0.118,0.057,1.03,-0.001,0.001,-0.004
20:03:32,0.477,0.275,0.049,0.0,0.118,0.056,1.03,0.001,0.006,-0.004
20:03:32,0.481,0.275,0.049,0.0,0.117,0.056,1.032,0.005,-0.003,-0.009
20:03:32,0.486,0.276,0.049,0.0,0.117,0.056,1.031,-0.01,-0.0,-0.005
20:03:32,0.491,0.276,0.049,0.0,0.115,0.056,1.028,-0.003,0.002,-0.005
20:03:32,0.493,0.275,0.049,0.0,0.116,0.055,1.024,-0.008,-0.0,-0.005
20:03:32,0.49,0.277,0.049,0.0,0.116,0.055,1.023,-0.005,0.004,-0.002
20:03:32,0.492,0.277,0.049,0.0,0.115,0.056,1.023,-0.003,-0.0,-0.006
20:03:32,0.483,0.276,0.049,0.0,0.115,0.055,1.022,-0.004,0.0,-0.005
20:03:32,0.485,0.278,0.049,0.0,0.116,0.056,1.022,-0.005,-0.002,-0.007
20:03:32,0.487,0.276,0.049,0.0,0.116,0.056,1.021,-0.0,-0.001,-0.005
20:03:32,0.49,0.275,0.048,0.0,0.116,0.056,1.021,0.0,-0.001,-0.008
20:03:32,0.492,0.274,0.048,0.0,0.116,0.055,1.021,-0.003,-0.001,-0.009
20:03:32,0.497,0.277,0.048,0.0,0.115,0.055,1.022,-0.001,-0.005,-0.004
20:03:32,0.497,0.276,0.048,0.0,0.115,0.054,1.023,0.002,0.011,-0.005
20:03:32,0.499,0.277,0.048,0.0,0.115,0.053,1.023,0.006,0.015,-0.004
20:03:33,0.5,0.28,0.048,0.0,0.116,0.053,1.023,0.007,0.013,-0.008
20:03:33,0.497,0.279,0.048,0.0,0.116,0.054,1.022,0.004,0.01,-0.009
20:03:33,0.497,0.278,0.048,0.0,0.116,0.053,1.021,0.007,0.009,-0.007
20:03:33,0.495,0.278,0.049,0.0,0.115,0.054,1.021,-0.001,0.005,-0.007
20:03:33,0.495,0.276,0.049,0.0,0.116,0.055,1.021,-0.003,0.004,-0.005
20:03:33,0.456,0.276,0.049,0.0,0.116,0.054,1.022,0.009,0.005,-0.004
20:03:33,0.468,0.275,0.048,0.0,0.116,0.054,1.022,0.004,-0.002,-0.002
20:03:33,0.475,0.275,0.048,0.0,0.115,0.054,1.023,0.002,-0.002,-0.003
20:03:33,0.483,0.277,0.048,0.0,0.115,0.055,1.024,-0.002,-0.002,0.002
20:03:33,0.485,0.275,0.049,0.0,0.113,0.053,1.019,0.005,0.014,0.006
20:03:33,0.489,0.277,0.049,0.0,0.112,0.052,1.016,0.001,0.026,0.001
20:03:33,0.495,0.278,0.048,0.0,0.112,0.049,1.009,0.005,0.037,-0.0
20:03:33,0.5,0.254,0.044,0.0,0.112,0.047,1.009,-0.001,0.027,-0.001
20:03:33,0.499,0.259,0.045,0.0,0.111,0.048,1.006,0.001,0.005,-0.0
20:03:33,0.496,0.264,0.046,0.0,0.113,0.05,1.006,0.005,-0.005,-0.002
20:03:33,0.494,0.268,0.047,0.0,0.114,0.051,1.009,0.003,-0.01,-0.003
20:03:33,0.497,0.272,0.048,0.0,0.114,0.052,1.011,0.003,-0.006,-0.004
20:03:33,0.493,0.273,0.048,0.0,0.114,0.054,1.015,0.002,-0.008,-0.002
20:03:33,0.494,0.274,0.048,0.0,0.113,0.054,1.017,0.007,-0.007,0.002
20:03:33,0.493,0.275,0.048,0.0,0.115,0.054,1.02,0.006,-0.002,-0.001
20:03:33,0.494,0.275,0.048,0.0,0.117,0.054,1.022,0.007,-0.0,-0.002
20:03:33,0.495,0.276,0.049,0.0,0.117,0.055,1.022,0.005,-0.01,-0.001
20:03:33,0.495,0.276,0.049,0.0,0.117,0.054,1.023,-0.002,-0.012,0.002
20:03:34,0.496,0.276,0.049,0.0,0.116,0.054,1.022,-0.003,-0.01,0.002
20:03:34,0.496,0.276,0.049,0.0,0.116,0.054,1.022,-0.006,-0.009,0.001
20:03:34,0.496,0.276,0.049,0.0,0.115,0.055,1.021,-0.008,-0.008,-0.001
20:03:34,0.496,0.272,0.049,0.0,0.116,0.053,1.021,-0.006,-0.002,-0.001
20:03:34,0.494,0.272,0.049,0.0,0.115,0.053,1.02,-0.007,-0.002,-0.005
20:03:34,0.495,0.273,0.049,0.0,0.115,0.054,1.02,0.002,-0.001,-0.002
20:03:34,0.496,0.274,0.048,0.0,0.114,0.055,1.02,-0.0,-0.001,0.0
20:03:34,0.496,0.275,0.048,0.0,0.115,0.055,1.02,0.001,-0.001,0.003
20:03:34,0.498,0.275,0.048,0.0,0.115,0.055,1.02,0.003,0.001,-0.001
20:03:34,0.498,0.276,0.047,0.0,0.116,0.055,1.021,0.005,0.003,-0.005
20:03:34,0.491,0.273,0.047,0.0,0.116,0.056,1.023,0.007,0.001,-0.002
20:03:34,0.493,0.274,0.048,0.0,0.116,0.056,1.025,0.004,0.0,-0.002
20:03:34,0.494,0.275,0.048,0.0,0.117,0.056,1.025,0.003,-0.001,-0.001
20:03:34,0.495,0.275,0.048,0.0,0.116,0.057,1.026,0.002,0.002,0.001
20:03:34,0.499,0.276,0.048,0.0,0.117,0.057,1.027,-0.006,0.007,0.001
20:03:34,0.499,0.277,0.048,0.0,0.117,0.056,1.025,-0.003,0.015,0.002
20:03:34,0.498,0.277,0.048,0.0,0.117,0.055,1.023,-0.003,0.013,-0.003
20:03:34,0.496,0.275,0.049,0.0,0.116,0.054,1.022,-0.005,0.01,-0.001
20:03:34,0.494,0.276,0.049,0.0,0.116,0.054,1.02,-0.006,0.002,0.002
20:03:34,0.493,0.277,0.049,0.0,0.116,0.055,1.021,-0.004,-0.003,0.004
20:03:34,0.496,0.277,0.049,0.0,0.115,0.055,1.021,0.001,0.001,0.003
20:03:35,0.498,0.28,0.049,0.0,0.115,0.055,1.022,0.002,0.003,0.006
20:03:35,0.496,0.28,0.049,0.0,0.116,0.055,1.022,0.001,-0.0,0.002
20:03:35,0.5,0.276,0.048,0.0,0.118,0.054,1.023,0.002,-0.004,0.003
20:03:35,0.499,0.276,0.048,0.0,0.118,0.053,1.022,0.002,-0.002,-0.0
20:03:35,0.496,0.275,0.048,0.0,0.117,0.053,1.022,-0.006,-0.002,0.001
20:03:35,0.496,0.275,0.048,0.0,0.117,0.052,1.023,-0.005,0.005,0.001
20:03:35,0.502,0.277,0.048,0.0,0.117,0.052,1.023,-0.003,0.004,-0.002
20:03:35,0.499,0.28,0.048,0.0,0.118,0.053,1.025,0.003,0.009,-0.003
20:03:35,0.498,0.277,0.045,0.0,0.117,0.053,1.025,0.0,0.008,-0.005
20:03:35,0.498,0.279,0.046,0.0,0.118,0.054,1.026,0.006,0.004,-0.004
20:03:35,0.499,0.278,0.047,0.0,0.117,0.055,1.024,0.01,0.005,-0.005
20:03:35,0.499,0.279,0.047,0.0,0.117,0.054,1.023,0.006,0.003,-0.003
20:03:35,0.498,0.278,0.048,0.0,0.117,0.056,1.022,0.002,0.002,-0.008
20:03:35,0.5,0.281,0.048,0.0,0.116,0.055,1.026,0.002,0.004,-0.009
20:03:35,0.497,0.278,0.048,0.0,0.116,0.055,1.026,-0.001,0.006,-0.005
20:03:35,0.501,0.277,0.049,0.0,0.117,0.054,1.027,-0.003,0.006,0.001
20:03:35,0.499,0.277,0.049,0.0,0.116,0.054,1.027,0.001,0.008,0.0
20:03:35,0.465,0.268,0.049,0.0,0.116,0.054,1.026,0.002,0.005,0.002
20:03:35,0.474,0.269,0.048,0.0,0.116,0.054,1.026,-0.003,0.002,0.002
20:03:35,0.485,0.271,0.048,0.0,0.116,0.054,1.027,-0.002,0.001,0.002
20:03:35,0.485,0.273,0.048,0.0,0.117,0.054,1.026,-0.006,0.001,0.004
20:03:35,0.492,0.274,0.049,0.0,0.116,0.053,1.026,-0.004,-0.001,0.005
20:03:36,0.494,0.279,0.049,0.0,0.116,0.054,1.026,-0.006,0.0,0.001
20:03:36,0.496,0.281,0.049,0.0,0.116,0.054,1.026,-0.001,0.001,0.001
20:03:36,0.495,0.281,0.049,0.0,0.117,0.054,1.026,-0.0,0.003,0.002
20:03:36,0.495,0.278,0.049,0.0,0.116,0.054,1.025,0.001,0.002,0.005
20:03:36,0.494,0.278,0.049,0.0,0.117,0.055,1.024,0.002,0.001,0.001
20:03:36,0.495,0.277,0.049,0.0,0.116,0.054,1.022,0.001,-0.003,-0.001
20:03:36,0.493,0.279,0.045,0.0,0.116,0.054,1.021,0.003,-0.003,-0.006
20:03:36,0.496,0.276,0.046,0.0,0.115,0.053,1.022,-0.002,-0.002,0.0
20:03:36,0.494,0.276,0.047,0.0,0.115,0.054,1.023,-0.003,0.002,-0.002
20:03:36,0.495,0.276,0.047,0.0,0.116,0.054,1.021,-0.002,0.007,-0.004
20:03:36,0.5,0.278,0.048,0.0,0.117,0.054,1.02,-0.0,0.004,0.004
20:03:36,0.501,0.277,0.048,0.0,0.116,0.055,1.022,-0.004,0.011,0.001
20:03:36,0.499,0.277,0.049,0.0,0.116,0.055,1.022,-0.003,0.007,0.003
20:03:36,0.499,0.277,0.049,0.0,0.116,0.054,1.023,0.003,0.004,0.005
20:03:36,0.498,0.275,0.049,0.0,0.115,0.055,1.026,0.005,0.001,0.007
20:03:36,0.498,0.276,0.049,0.0,0.115,0.055,1.028,0.002,0.004,0.002
20:03:36,0.497,0.274,0.049,0.0,0.116,0.055,1.027,0.006,-0.003,0.0
20:03:36,0.495,0.273,0.049,0.0,0.116,0.056,1.028,0.007,-0.007,0.002
20:03:36,0.494,0.277,0.049,0.0,0.116,0.057,1.028,0.006,0.003,0.004
20:03:36,0.493,0.277,0.049,0.0,0.117,0.056,1.026,0.005,0.012,0.004
20:03:36,0.496,0.278,0.049,0.0,0.117,0.055,1.026,0.001,0.002,-0.001
20:03:37,0.498,0.279,0.049,0.0,0.117,0.055,1.026,0.002,0.002,-0.002
20:03:37,0.498,0.278,0.049,0.0,0.117,0.055,1.025,0.0,-0.005,0.001
20:03:37,0.497,0.278,0.049,0.0,0.117,0.054,1.024,-0.006,0.001,0.002
20:03:37,0.495,0.277,0.049,0.0,0.117,0.054,1.023,0.001,0.001,-0.001
20:03:37,0.498,0.279,0.049,0.0,0.116,0.054,1.021,0.005,0.003,-0.001
20:03:37,0.499,0.278,0.049,0.0,0.115,0.054,1.021,0.002,0.002,0.003
20:03:37,0.499,0.277,0.049,0.0,0.114,0.055,1.021,0.001,0.006,0.0
20:03:37,0.5,0.277,0.049,0.0,0.115,0.054,1.019,0.001,0.004,-0.004
20:03:37,0.497,0.277,0.048,0.0,0.115,0.054,1.02,-0.003,0.003,-0.005
20:03:37,0.497,0.277,0.048,0.0,0.114,0.053,1.02,-0.002,0.002,-0.005
20:03:37,0.497,0.275,0.048,0.0,0.115,0.056,1.02,-0.004,0.004,0.003
20:03:37,0.497,0.274,0.048,0.0,0.115,0.056,1.02,-0.001,0.004,0.001
20:03:37,0.497,0.273,0.048,0.0,0.115,0.055,1.021,-0.002,0.001,0.001
20:03:37,0.495,0.273,0.048,0.0,0.115,0.054,1.021,0.001,0.004,-0.002
20:03:37,0.495,0.272,0.048,0.0,0.114,0.055,1.022,0.003,0.003,-0.0
20:03:37,0.494,0.275,0.048,0.0,0.118,0.062,1.028,0.002,-0.031,-0.004
20:03:37,0.495,0.274,0.048,0.0,0.121,0.063,1.029,0.008,-0.032,-0.001
20:03:37,0.493,0.275,0.048,0.0,0.121,0.061,1.031,0.001,-0.021,0.0
20:03:37,0.494,0.275,0.048,0.0,0.119,0.058,1.03,-0.005,0.004,0.0
20:03:37,0.499,0.276,0.048,0.0,0.118,0.057,1.03,0.003,0.018,-0.006
20:03:37,0.498,0.274,0.048,0.0,0.117,0.057,1.03,-0.002,0.021,-0.004
20:03:37,0.5,0.276,0.048,0.0,0.117,0.056,1.028,-0.001,0.022,-0.003
20:03:38,0.501,0.276,0.048,0.0,0.116,0.055,1.029,-0.008,0.021,-0.004
20:03:38,0.462,0.275,0.047,0.0,0.115,0.054,1.029,-0.008,0.012,-0.002
20:03:38,0.472,0.275,0.048,0.0,0.114,0.055,1.03,-0.009,0.008,-0.001
20:03:38,0.48,0.276,0.048,0.0,0.112,0.055,1.029,-0.009,0.009,0.003
20:03:38,0.485,0.274,0.048,0.0,0.113,0.053,1.027,0.003,0.009,0.002
20:03:38,0.484,0.273,0.048,0.0,0.115,0.054,1.028,0.006,0.008,0.001
20:03:38,0.494,0.274,0.047,0.0,0.114,0.055,1.024,0.007,0.007,-0.001
20:03:38,0.495,0.275,0.048,0.0,0.115,0.053,1.022,0.008,0.003,0.002
20:03:38,0.495,0.275,0.048,0.0,0.115,0.053,1.023,0.005,0.001,0.001
20:03:38,0.49,0.276,0.048,0.0,0.116,0.053,1.022,0.007,0.001,-0.003
20:03:38,0.492,0.276,0.048,0.0,0.114,0.052,1.018,0.021,0.001,-0.0
20:03:38,0.491,0.276,0.048,0.0,0.114,0.049,1.009,0.002,0.021,0.005
20:03:38,0.495,0.276,0.048,0.0,0.114,0.048,1.01,0.01,0.017,0.002
20:03:38,0.495,0.278,0.049,0.0,0.116,0.049,1.012,0.005,0.005,0.002
20:03:38,0.496,0.276,0.049,0.0,0.116,0.05,1.013,0.005,0.011,0.002
20:03:38,0.496,0.276,0.049,0.0,0.117,0.051,1.013,0.004,0.008,-0.003
20:03:38,0.494,0.276,0.049,0.0,0.116,0.051,1.015,-0.002,0.002,-0.005
20:03:38,0.495,0.276,0.048,0.0,0.116,0.051,1.016,0.002,0.004,-0.001
20:03:38,0.494,0.275,0.048,0.0,0.116,0.052,1.018,-0.002,0.003,-0.003
20:03:38,0.498,0.275,0.048,0.0,0.116,0.053,1.02,-0.001,0.001,-0.002
20:03:38,0.496,0.276,0.049,0.0,0.117,0.054,1.024,-0.002,0.0,0.002
20:03:38,0.496,0.249,0.047,0.0,0.117,0.055,1.026,-0.007,-0.004,0.0
20:03:39,0.494,0.255,0.048,0.0,0.117,0.055,1.027,-0.009,-0.0,0.002
20:03:39,0.493,0.26,0.048,0.0,0.117,0.054,1.028,-0.007,0.002,0.0
20:03:39,0.494,0.265,0.048,0.0,0.117,0.054,1.028,-0.007,0.001,-0.006
20:03:39,0.495,0.268,0.048,0.0,0.117,0.054,1.027,-0.005,0.001,-0.006
20:03:39,0.495,0.271,0.048,0.0,0.116,0.052,1.025,-0.004,-0.003,-0.004
20:03:39,0.492,0.273,0.048,0.0,0.115,0.053,1.023,-0.003,-0.007,-0.004
20:03:39,0.493,0.272,0.049,0.0,0.116,0.052,1.022,-0.002,-0.005,-0.004
20:03:39,0.492,0.272,0.048,0.0,0.117,0.053,1.021,-0.003,-0.004,-0.004
20:03:39,0.476,0.269,0.048,0.0,0.117,0.053,1.021,-0.0,-0.004,-0.002
20:03:39,0.48,0.271,0.048,0.0,0.118,0.053,1.021,0.0,-0.002,-0.001
20:03:39,0.485,0.271,0.048,0.0,0.116,0.054,1.022,-0.003,0.001,-0.0
20:03:39,0.487,0.27,0.048,0.0,0.116,0.053,1.022,-0.002,-0.001,-0.004
20:03:39,0.488,0.27,0.048,0.0,0.115,0.053,1.021,-0.001,-0.002,-0.001
20:03:39,0.476,0.272,0.048,0.0,0.116,0.054,1.022,0.003,-0.002,-0.002
20:03:39,0.483,0.272,0.048,0.0,0.116,0.053,1.021,0.0,-0.001,-0.006
20:03:39,0.487,0.275,0.049,0.0,0.115,0.053,1.022,0.004,-0.002,-0.005
20:03:39,0.49,0.275,0.049,0.0,0.114,0.053,1.024,0.001,-0.004,-0.002
20:03:39,0.492,0.274,0.048,0.0,0.115,0.054,1.024,0.001,-0.004,-0.001
20:03:39,0.495,0.275,0.048,0.0,0.116,0.054,1.025,0.006,-0.005,0.003
20:03:39,0.496,0.274,0.048,0.0,0.116,0.055,1.025,0.006,-0.005,0.004
20:03:39,0.496,0.275,0.049,0.0,0.117,0.055,1.025,0.008,-0.005,0.003
20:03:39,0.498,0.275,0.049,0.0,0.117,0.055,1.026,0.008,-0.001,0.004
20:03:40,0.496,0.275,0.049,0.0,0.118,0.055,1.026,0.007,0.001,0.005
20:03:40,0.494,0.276,0.049,0.0,0.117,0.055,1.026,0.006,-0.003,0.004
20:03:40,0.495,0.274,0.049,0.0,0.117,0.056,1.025,0.003,-0.001,0.001
20:03:40,0.493,0.275,0.049,0.0,0.116,0.056,1.025,-0.003,-0.005,0.001
20:03:40,0.494,0.275,0.049,0.0,0.116,0.056,1.025,-0.003,-0.0,0.005
20:03:40,0.495,0.276,0.049,0.0,0.116,0.056,1.025,0.003,-0.0,-0.0
20:03:40,0.494,0.277,0.049,0.0,0.116,0.055,1.024,0.005,0.004,0.003
20:03:40,0.495,0.277,0.049,0.0,0.116,0.055,1.023,0.01,-0.002,0.006
20:03:40,0.497,0.277,0.049,0.0,0.116,0.053,1.023,0.013,-0.001,0.003
20:03:40,0.499,0.277,0.049,0.0,0.116,0.053,1.023,0.008,-0.002,-0.0
20:03:40,0.498,0.277,0.049,0.0,0.117,0.054,1.021,0.006,-0.001,-0.005
20:03:40,0.494,0.274,0.049,0.0,0.118,0.053,1.02,0.005,0.001,-0.002
20:03:40,0.493,0.274,0.049,0.0,0.117,0.055,1.021,0.006,-0.003,-0.004
20:03:40,0.492,0.275,0.049,0.0,0.118,0.057,1.021,0.0,-0.0,-0.002
20:03:40,0.491,0.274,0.049,0.0,0.117,0.057,1.021,0.001,0.002,-0.001
20:03:40,0.493,0.273,0.049,0.0,0.117,0.057,1.018,0.001,-0.003,-0.001
20:03:40,0.494,0.274,0.049,0.0,0.115,0.056,1.023,0.005,-0.01,0.003
20:03:40,0.495,0.276,0.049,0.0,0.114,0.057,1.023,0.003,-0.0,-0.001
20:03:40,0.493,0.276,0.049,0.0,0.115,0.056,1.024,0.002,0.003,-0.001
20:03:40,0.492,0.275,0.049,0.0,0.115,0.055,1.025,0.003,-0.0,-0.005
20:03:40,0.488,0.275,0.049,0.0,0.116,0.055,1.024,0.002,0.002,-0.007
20:03:41,0.488,0.274,0.048,0.0,0.116,0.054,1.026,-0.001,-0.002,-0.006
20:03:41,0.491,0.275,0.048,0.0,0.117,0.054,1.024,-0.0,0.002,0.0
20:03:41,0.493,0.275,0.048,0.0,0.116,0.054,1.025,-0.0,0.001,0.001
20:03:41,0.494,0.277,0.049,0.0,0.116,0.055,1.025,-0.001,0.001,-0.001
20:03:41,0.497,0.275,0.048,0.0,0.117,0.055,1.026,-0.003,0.005,-0.001
20:03:41,0.461,0.265,0.048,0.0,0.117,0.054,1.028,-0.003,0.004,0.002
20:03:41,0.474,0.269,0.048,0.0,0.117,0.054,1.027,-0.001,0.002,-0.002
20:03:41,0.481,0.269,0.048,0.0,0.116,0.054,1.026,0.0,0.0,-0.004
20:03:41,0.485,0.271,0.049,0.0,0.117,0.053,1.027,-0.002,0.001,-0.004
20:03:41,0.489,0.273,0.049,0.0,0.116,0.054,1.025,-0.001,-0.002,-0.002
20:03:41,0.493,0.274,0.048,0.0,0.116,0.054,1.025,-0.001,-0.008,-0.007
20:03:41,0.494,0.275,0.048,0.0,0.117,0.054,1.023,-0.001,-0.007,-0.003
20:03:41,0.493,0.274,0.048,0.0,0.118,0.053,1.021,-0.001,-0.002,-0.0
20:03:41,0.494,0.275,0.048,0.0,0.117,0.053,1.022,0.002,-0.0,-0.001
20:03:41,0.495,0.275,0.048,0.0,0.117,0.052,1.022,0.003,-0.0,0.004
20:03:41,0.495,0.274,0.048,0.0,0.117,0.053,1.021,0.0,0.004,0.006
20:03:41,0.496,0.273,0.048,0.0,0.116,0.053,1.021,0.002,0.003,0.002
20:03:41,0.496,0.273,0.048,0.0,0.115,0.053,1.021,0.001,0.001,0.002
20:03:41,0.496,0.272,0.048,0.0,0.117,0.055,1.021,0.006,0.0,0.003
20:03:41,0.494,0.272,0.048,0.0,0.116,0.054,1.021,0.006,0.003,0.003
20:03:41,0.495,0.272,0.048,0.0,0.116,0.055,1.022,0.003,0.002,0.004
20:03:41,0.498,0.276,0.048,0.0,0.116,0.055,1.023,-0.003,0.005,0.008
20:03:42,0.497,0.275,0.049,0.0,0.116,0.055,1.024,-0.002,0.004,0.006
20:03:42,0.497,0.277,0.049,0.0,0.117,0.054,1.025,-0.002,0.002,0.003
20:03:42,0.497,0.277,0.049,0.0,0.117,0.054,1.024,-0.004,0.004,0.007
20:03:42,0.497,0.278,0.049,0.0,0.118,0.054,1.026,-0.002,0.001,0.003
20:03:42,0.495,0.276,0.048,0.0,0.117,0.054,1.027,-0.003,0.005,0.004
20:03:42,0.495,0.276,0.048,0.0,0.116,0.054,1.026,-0.005,0.006,-0.002
20:03:42,0.502,0.279,0.049,0.0,0.116,0.055,1.027,-0.002,-0.0,0.001
20:03:42,0.5,0.277,0.049,0.0,0.117,0.055,1.027,-0.001,0.005,0.003
20:03:42,0.495,0.277,0.049,0.0,0.117,0.055,1.027,0.001,0.001,0.001
20:03:42,0.496,0.275,0.049,0.0,0.117,0.056,1.029,0.003,-0.003,0.001
20:03:42,0.494,0.275,0.049,0.0,0.116,0.055,1.03,0.005,-0.002,0.001
20:03:42,0.497,0.274,0.049,0.0,0.116,0.055,1.028,0.002,-0.007,0.002
20:03:42,0.497,0.273,0.049,0.0,0.116,0.053,1.027,0.005,-0.008,0.001
20:03:42,0.495,0.273,0.049,0.0,0.116,0.052,1.024,0.0,-0.015,0.005
20:03:42,0.493,0.272,0.049,0.0,0.115,0.053,1.021,-0.005,-0.012,0.007
20:03:42,0.494,0.274,0.048,0.0,0.115,0.053,1.02,-0.003,-0.011,0.006
20:03:42,0.495,0.273,0.048,0.0,0.115,0.053,1.019,-0.001,-0.004,0.007
20:03:42,0.492,0.272,0.048,0.0,0.116,0.053,1.019,0.005,-0.005,0.003
20:03:42,0.493,0.274,0.049,0.0,0.115,0.052,1.017,0.006,-0.003,0.004
20:03:42,0.496,0.273,0.049,0.0,0.114,0.053,1.018,0.004,-0.001,0.006
20:03:42,0.496,0.274,0.048,0.0,0.114,0.053,1.018,-0.001,0.001,0.005
20:03:42,0.496,0.276,0.048,0.0,0.115,0.053,1.019,-0.006,0.002,0.006
20:03:43,0.498,0.276,0.048,0.0,0.116,0.054,1.019,-0.006,-0.0,0.005
20:03:43,0.498,0.276,0.049,0.0,0.116,0.054,1.021,-0.008,0.001,0.009
20:03:43,0.498,0.276,0.049,0.0,0.115,0.054,1.021,-0.003,0.004,0.009
20:03:43,0.493,0.275,0.049,0.0,0.116,0.054,1.022,-0.003,0.007,0.002
20:03:43,0.494,0.275,0.049,0.0,0.116,0.054,1.022,-0.004,0.012,0.001
20:03:43,0.495,0.277,0.049,0.0,0.115,0.055,1.023,-0.004,0.008,-0.003
20:03:43,0.498,0.277,0.049,0.0,0.115,0.055,1.025,-0.002,0.006,-0.001
20:03:43,0.499,0.278,0.049,0.0,0.116,0.055,1.027,-0.0,0.003,0.0
20:03:43,0.497,0.278,0.049,0.0,0.115,0.054,1.028,-0.003,0.001,0.002
20:03:43,0.495,0.277,0.049,0.0,0.116,0.055,1.029,-0.005,-0.001,0.0
20:03:43,0.497,0.251,0.048,0.0,0.117,0.055,1.027,0.001,-0.002,0.001
20:03:43,0.497,0.259,0.048,0.0,0.117,0.056,1.028,-0.003,-0.006,0.004
20:03:43,0.499,0.264,0.048,0.0,0.117,0.056,1.027,-0.008,-0.005,0.005
20:03:43,0.498,0.268,0.048,0.0,0.117,0.054,1.025,-0.008,0.0,0.002
20:03:43,0.498,0.27,0.048,0.0,0.117,0.055,1.025,-0.004,-0.0,0.001
20:03:43,0.503,0.269,0.048,0.0,0.116,0.055,1.022,-0.002,0.004,-0.001
20:03:43,0.505,0.271,0.048,0.0,0.116,0.055,1.021,-0.0,0.005,-0.002
20:03:43,0.503,0.273,0.048,0.0,0.116,0.054,1.022,0.001,0.006,-0.002
20:03:43,0.501,0.274,0.048,0.0,0.117,0.054,1.021,-0.002,0.005,-0.003
20:03:43,0.504,0.276,0.049,0.0,0.117,0.053,1.022,0.002,0.008,-0.004
20:03:43,0.504,0.276,0.049,0.0,0.117,0.052,1.022,0.003,0.004,-0.002
20:03:43,0.503,0.276,0.049,0.0,0.116,0.054,1.022,0.004,0.006,-0.003
20:03:44,0.503,0.276,0.049,0.0,0.116,0.054,1.022,0.009,0.004,-0.002
20:03:44,0.503,0.275,0.049,0.0,0.116,0.055,1.023,0.005,0.001,-0.004
20:03:44,0.499,0.277,0.049,0.0,0.116,0.056,1.024,-0.001,-0.001,-0.003
20:03:44,0.501,0.278,0.049,0.0,0.117,0.056,1.025,-0.001,-0.001,-0.007
20:03:44,0.505,0.278,0.049,0.0,0.117,0.057,1.025,0.001,0.004,-0.004
20:03:44,0.505,0.276,0.049,0.0,0.116,0.056,1.025,0.006,0.005,-0.001
20:03:44,0.504,0.276,0.049,0.0,0.116,0.055,1.027,-0.001,0.005,0.002
20:03:44,0.504,0.275,0.049,0.0,0.116,0.053,1.026,0.003,0.005,-0.002
20:03:44,0.47,0.269,0.049,0.0,0.115,0.055,1.027,0.001,0.004,-0.008
20:03:44,0.478,0.271,0.049,0.0,0.116,0.054,1.028,0.005,0.002,-0.012
20:03:44,0.486,0.273,0.048,0.0,0.116,0.055,1.029,0.008,0.001,-0.013
20:03:44,0.489,0.275,0.048,0.0,0.116,0.054,1.03,0.002,0.002,-0.011
20:03:44,0.491,0.274,0.048,0.0,0.115,0.054,1.029,-0.005,0.002,-0.008
20:03:44,0.497,0.276,0.049,0.0,0.116,0.054,1.026,0.001,0.006,-0.006
20:03:44,0.495,0.276,0.048,0.0,0.116,0.055,1.026,0.003,-0.0,-0.005
20:03:44,0.497,0.278,0.048,0.0,0.116,0.055,1.025,0.003,-0.0,-0.002
20:03:44,0.499,0.277,0.048,0.0,0.115,0.055,1.024,0.004,-0.002,0.002
20:03:44,0.498,0.276,0.048,0.0,0.115,0.054,1.023,0.006,0.001,0.005
20:03:44,0.498,0.274,0.048,0.0,0.115,0.054,1.024,0.002,0.0,0.004
20:03:44,0.5,0.276,0.048,0.0,0.116,0.055,1.023,-0.003,0.001,0.003
20:03:44,0.497,0.275,0.048,0.0,0.116,0.055,1.022,0.002,0.003,0.004
20:03:44,0.497,0.275,0.049,0.0,0.116,0.055,1.023,-0.006,0.004,0.002
20:03:45,0.497,0.277,0.049,0.0,0.116,0.054,1.021,-0.004,0.001,-0.004
20:03:45,0.497,0.275,0.049,0.0,0.116,0.054,1.024,-0.004,-0.002,-0.002
20:03:45,0.497,0.277,0.049,0.0,0.117,0.054,1.024,-0.004,0.002,-0.005
20:03:45,0.497,0.277,0.049,0.0,0.118,0.054,1.022,-0.007,-0.001,-0.001
20:03:45,0.497,0.278,0.049,0.0,0.116,0.053,1.024,-0.0,0.001,-0.002
20:03:45,0.495,0.278,0.049,0.0,0.116,0.054,1.025,0.003,-0.001,-0.002
20:03:45,0.497,0.279,0.048,0.0,0.116,0.054,1.026,-0.001,-0.003,-0.007
20:03:45,0.497,0.277,0.048,0.0,0.117,0.054,1.026,-0.0,-0.007,-0.001
20:03:45,0.497,0.277,0.048,0.0,0.117,0.056,1.026,0.002,-0.003,-0.002
20:03:45,0.499,0.276,0.048,0.0,0.116,0.056,1.024,0.004,-0.003,0.003
20:03:45,0.496,0.278,0.048,0.0,0.116,0.056,1.024,0.006,-0.002,0.003
20:03:45,0.496,0.277,0.048,0.0,0.117,0.053,1.027,-0.009,-0.009,0.001
20:03:45,0.481,0.264,0.049,0.0,0.118,0.055,1.034,-0.004,-0.01,-0.001
20:03:45,0.483,0.267,0.049,0.0,0.117,0.057,1.035,-0.006,-0.006,-0.003
20:03:45,0.487,0.27,0.049,0.0,0.117,0.058,1.033,-0.003,-0.009,-0.003
20:03:45,0.482,0.272,0.049,0.0,0.116,0.057,1.031,0.002,-0.014,-0.003
20:03:45,0.491,0.273,0.048,0.0,0.116,0.056,1.03,-0.0,-0.016,-0.003
20:03:45,0.492,0.274,0.048,0.0,0.116,0.057,1.031,-0.001,-0.012,0.002
20:03:45,0.492,0.273,0.048,0.0,0.118,0.056,1.029,-0.003,-0.008,0.002
20:03:45,0.493,0.276,0.049,0.0,0.116,0.054,1.026,-0.007,-0.01,0.001
20:03:45,0.494,0.27,0.049,0.0,0.116,0.055,1.025,-0.004,-0.007,0.002
20:03:46,0.495,0.27,0.049,0.0,0.117,0.054,1.023,0.001,-0.002,0.003
20:03:46,0.499,0.272,0.049,0.0,0.117,0.055,1.021,0.004,-0.003,0.004
20:03:46,0.497,0.275,0.049,0.0,0.117,0.055,1.019,0.003,-0.002,-0.001
20:03:46,0.497,0.275,0.049,0.0,0.116,0.054,1.018,0.001,-0.004,-0.004
20:03:46,0.497,0.276,0.049,0.0,0.116,0.054,1.021,0.001,-0.006,-0.001
20:03:46,0.497,0.276,0.049,0.0,0.117,0.055,1.019,-0.001,-0.005,-0.001
20:03:46,0.495,0.276,0.048,0.0,0.116,0.056,1.021,0.001,-0.004,-0.001
20:03:46,0.499,0.275,0.048,0.0,0.116,0.056,1.022,0.001,-0.005,-0.001
20:03:46,0.498,0.275,0.048,0.0,0.116,0.056,1.022,0.005,-0.001,0.0
20:03:46,0.498,0.276,0.049,0.0,0.116,0.056,1.023,0.004,-0.003,0.002
20:03:46,0.498,0.276,0.049,0.0,0.116,0.055,1.023,0.001,-0.0,-0.006
20:03:46,0.497,0.276,0.049,0.0,0.115,0.055,1.023,-0.002,-0.005,-0.002
20:03:46,0.497,0.276,0.049,0.0,0.117,0.054,1.023,-0.002,-0.005,-0.001
20:03:46,0.495,0.275,0.049,0.0,0.116,0.054,1.025,-0.002,-0.008,-0.002
20:03:46,0.497,0.275,0.049,0.0,0.116,0.053,1.025,0.002,-0.006,0.001
20:03:46,0.497,0.277,0.049,0.0,0.114,0.053,1.025,0.001,-0.003,-0.004
20:03:46,0.499,0.277,0.049,0.0,0.114,0.053,1.023,-0.002,-0.006,0.0
20:03:46,0.494,0.275,0.049,0.0,0.115,0.054,1.022,0.001,-0.004,-0.002
20:03:46,0.497,0.276,0.049,0.0,0.116,0.054,1.021,-0.001,-0.002,0.0
20:03:46,0.503,0.282,0.047,0.0,0.116,0.054,1.022,0.002,0.003,-0.001
20:03:46,0.503,0.279,0.047,0.0,0.116,0.054,1.022,-0.001,0.002,0.001
20:03:46,0.501,0.276,0.047,0.0,0.114,0.054,1.022,-0.008,0.002,-0.001
20:03:47,0.498,0.276,0.048,0.0,0.113,0.054,1.03,-0.006,-0.017,-0.002
20:03:47,0.499,0.275,0.048,0.0,0.114,0.054,1.03,-0.012,-0.012,-0.001
20:03:47,0.497,0.275,0.048,0.0,0.113,0.054,1.032,-0.012,-0.006,0.0
20:03:47,0.497,0.276,0.048,0.0,0.113,0.054,1.031,-0.014,-0.001,-0.002
20:03:47,0.497,0.274,0.048,0.0,0.114,0.055,1.029,-0.011,0.007,0.001
20:03:47,0.497,0.275,0.048,0.0,0.115,0.055,1.029,-0.006,0.01,-0.005
20:03:47,0.497,0.275,0.049,0.0,0.117,0.056,1.028,-0.007,0.005,0.001
20:03:47,0.495,0.274,0.049,0.0,0.117,0.056,1.027,-0.004,0.005,0.002
20:03:47,0.495,0.275,0.049,0.0,0.117,0.055,1.025,-0.007,0.009,0.003
20:03:47,0.494,0.275,0.049,0.0,0.117,0.055,1.026,-0.009,0.002,0.004
20:03:47,0.493,0.277,0.049,0.0,0.115,0.055,1.026,-0.012,0.002,0.003
20:03:47,0.496,0.275,0.049,0.0,0.116,0.053,1.025,-0.006,-0.001,0.002
20:03:47,0.498,0.276,0.049,0.0,0.116,0.054,1.026,-0.005,-0.001,0.002
20:03:47,0.498,0.276,0.049,0.0,0.114,0.053,1.025,-0.002,-0.001,0.001
20:03:47,0.497,0.276,0.049,0.0,0.115,0.053,1.025,-0.002,-0.001,-0.001
20:03:47,0.499,0.275,0.049,0.0,0.114,0.053,1.025,-0.0,0.004,-0.004
20:03:47,0.494,0.275,0.049,0.0,0.114,0.053,1.024,0.0,0.006,0.002
20:03:47,0.493,0.277,0.049,0.0,0.115,0.053,1.024,-0.003,0.009,0.0
20:03:47,0.494,0.277,0.048,0.0,0.115,0.053,1.025,-0.007,0.005,0.002
20:03:47,0.497,0.277,0.048,0.0,0.115,0.054,1.025,-0.005,0.007,-0.0
20:03:47,0.497,0.277,0.048,0.0,0.115,0.054,1.025,0.0,0.003,0.002
20:03:47,0.493,0.277,0.049,0.0,0.114,0.053,1.023,-0.001,-0.003,0.0
20:03:48,0.494,0.275,0.049,0.0,0.115,0.055,1.023,0.003,-0.003,-0.005
20:03:48,0.495,0.275,0.049,0.0,0.115,0.054,1.021,0.004,-0.003,-0.001
20:03:48,0.493,0.276,0.049,0.0,0.115,0.055,1.023,0.005,-0.0,-0.005
20:03:48,0.494,0.276,0.048,0.0,0.114,0.054,1.021,0.006,-0.0,-0.002
20:03:48,0.495,0.276,0.048,0.0,0.114,0.054,1.022,0.006,0.002,-0.001
20:03:48,0.498,0.276,0.048,0.0,0.115,0.053,1.023,0.008,-0.0,-0.004
20:03:48,0.495,0.276,0.048,0.0,0.116,0.053,1.022,0.008,0.001,-0.0
20:03:48,0.498,0.276,0.048,0.0,0.117,0.052,1.021,0.003,0.001,-0.001
20:03:48,0.491,0.275,0.048,0.0,0.116,0.053,1.023,-0.001,-0.004,0.002
20:03:48,0.493,0.274,0.049,0.0,0.117,0.055,1.025,-0.003,-0.007,0.003
20:03:48,0.494,0.276,0.049,0.0,0.117,0.056,1.027,-0.001,-0.008,0.006
20:03:48,0.495,0.276,0.049,0.0,0.117,0.056,1.029,0.003,-0.003,0.011
20:03:48,0.497,0.276,0.049,0.0,0.116,0.056,1.031,0.001,-0.007,0.008
20:03:48,0.497,0.276,0.049,0.0,0.117,0.055,1.029,-0.0,-0.007,0.006
20:03:48,0.497,0.276,0.049,0.0,0.117,0.056,1.031,0.003,-0.01,0.006
20:03:48,0.497,0.276,0.048,0.0,0.117,0.055,1.03,0.003,-0.009,0.004
20:03:48,0.501,0.278,0.048,0.0,0.116,0.054,1.028,0.005,-0.006,-0.003
20:03:48,0.502,0.277,0.048,0.0,0.115,0.054,1.028,0.006,-0.005,-0.005
20:03:48,0.502,0.277,0.049,0.0,0.114,0.054,1.024,0.001,0.004,-0.006
20:03:48,0.502,0.277,0.049,0.0,0.116,0.052,1.021,-0.001,0.007,-0.005
20:03:48,0.501,0.278,0.049,0.0,0.116,0.053,1.021,-0.003,-0.001,-0.001
20:03:48,0.5,0.278,0.049,0.0,0.116,0.054,1.019,-0.004,0.004,-0.006
20:03:49,0.499,0.279,0.049,0.0,0.116,0.054,1.021,-0.006,-0.005,-0.008
20:03:49,0.5,0.278,0.049,0.0,0.116,0.054,1.023,-0.004,-0.003,-0.004
20:03:49,0.501,0.276,0.049,0.0,0.115,0.053,1.022,-0.004,0.003,-0.001
20:03:49,0.5,0.276,0.049,0.0,0.114,0.053,1.024,-0.0,-0.002,0.0
20:03:49,0.499,0.276,0.049,0.0,0.114,0.056,1.025,0.001,-0.003,-0.0
20:03:49,0.5,0.276,0.049,0.0,0.115,0.055,1.024,0.003,0.001,0.001
20:03:49,0.491,0.276,0.049,0.0,0.115,0.056,1.023,0.0,0.003,-0.001
20:03:49,0.495,0.276,0.048,0.0,0.116,0.056,1.023,-0.0,-0.004,0.001
20:03:49,0.497,0.278,0.048,0.0,0.115,0.056,1.024,0.003,-0.001,-0.002
20:03:49,0.499,0.276,0.049,0.0,0.116,0.055,1.024,-0.002,-0.0,-0.003
20:03:49,0.463,0.275,0.049,0.0,0.117,0.055,1.025,-0.004,-0.003,-0.006
20:03:49,0.471,0.277,0.049,0.0,0.116,0.055,1.027,-0.003,-0.004,-0.003
20:03:49,0.479,0.278,0.049,0.0,0.116,0.055,1.028,0.002,-0.004,-0.006
20:03:49,0.486,0.278,0.049,0.0,0.116,0.055,1.026,-0.002,-0.008,-0.004
20:03:49,0.489,0.277,0.049,0.0,0.116,0.055,1.026,0.0,-0.005,-0.003
20:03:49,0.493,0.278,0.049,0.0,0.115,0.055,1.025,-0.003,-0.005,-0.005
20:03:49,0.494,0.278,0.049,0.0,0.116,0.056,1.024,-0.007,-0.004,-0.006
20:03:49,0.493,0.276,0.049,0.0,0.115,0.056,1.024,-0.0,-0.004,-0.003
20:03:49,0.494,0.278,0.049,0.0,0.114,0.056,1.023,0.0,-0.009,0.001
20:03:49,0.495,0.277,0.049,0.0,0.115,0.056,1.024,-0.002,-0.01,0.004
20:03:49,0.495,0.277,0.049,0.0,0.116,0.056,1.023,0.0,-0.007,0.004
20:03:50,0.496,0.277,0.049,0.0,0.116,0.055,1.022,-0.003,-0.009,0.008
20:03:50,0.494,0.277,0.049,0.0,0.117,0.053,1.024,-0.004,-0.008,0.005
20:03:50,0.495,0.275,0.049,0.0,0.118,0.055,1.023,-0.001,-0.006,0.008
20:03:50,0.493,0.275,0.048,0.0,0.118,0.054,1.02,-0.002,-0.002,0.004
20:03:50,0.494,0.276,0.049,0.0,0.117,0.054,1.02,-0.0,-0.001,0.006
20:03:50,0.493,0.276,0.049,0.0,0.117,0.056,1.019,0.004,-0.007,0.004
20:03:50,0.494,0.275,0.049,0.0,0.116,0.055,1.021,-0.001,-0.003,0.002
20:03:50,0.497,0.275,0.049,0.0,0.116,0.055,1.023,-0.004,-0.003,0.001
20:03:50,0.493,0.275,0.049,0.0,0.117,0.056,1.024,-0.006,-0.006,-0.006
20:03:50,0.494,0.276,0.049,0.0,0.117,0.054,1.022,-0.002,-0.003,-0.002
20:03:50,0.495,0.274,0.049,0.0,0.118,0.053,1.023,-0.001,0.001,-0.002
20:03:50,0.495,0.275,0.049,0.0,0.117,0.054,1.022,-0.002,0.001,-0.002
20:03:50,0.498,0.277,0.049,0.0,0.117,0.054,1.022,-0.003,0.002,-0.004
20:03:50,0.497,0.275,0.049,0.0,0.115,0.054,1.022,-0.001,-0.001,-0.003
20:03:50,0.495,0.274,0.049,0.0,0.116,0.055,1.025,0.001,0.005,-0.002
20:03:50,0.494,0.273,0.049,0.0,0.117,0.055,1.024,0.007,0.0,-0.001
20:03:50,0.497,0.274,0.045,0.0,0.117,0.055,1.022,0.008,0.001,0.002
20:03:50,0.497,0.275,0.046,0.0,0.117,0.055,1.023,0.006,-0.002,-0.001
20:03:50,0.497,0.275,0.047,0.0,0.117,0.055,1.024,0.004,-0.003,0.002
20:03:50,0.497,0.276,0.047,0.0,0.117,0.055,1.024,-0.0,-0.004,0.003
20:03:50,0.501,0.276,0.048,0.0,0.116,0.055,1.023,0.003,-0.003,0.002
20:03:50,0.501,0.279,0.048,0.0,0.117,0.054,1.023,-0.002,-0.004,-0.002
20:03:51,0.502,0.278,0.048,0.0,0.117,0.054,1.022,-0.003,-0.004,-0.007
20:03:51,0.5,0.276,0.048,0.0,0.116,0.054,1.018,0.006,0.006,-0.002
20:03:51,0.499,0.278,0.048,0.0,0.116,0.054,1.015,0.01,0.007,-0.001
20:03:51,0.475,0.271,0.048,0.0,0.117,0.054,1.017,0.008,0.005,0.004
20:03:51,0.485,0.273,0.048,0.0,0.116,0.055,1.019,0.007,0.005,0.006
20:03:51,0.491,0.275,0.048,0.0,0.115,0.055,1.022,0.006,0.006,0.001
20:03:51,0.492,0.277,0.048,0.0,0.116,0.056,1.021,0.005,0.003,0.002
20:03:51,0.496,0.28,0.049,0.0,0.117,0.055,1.022,0.002,-0.003,0.006
20:03:51,0.492,0.28,0.048,0.0,0.116,0.056,1.023,-0.001,-0.005,-0.0
20:03:51,0.495,0.279,0.048,0.0,0.116,0.055,1.023,-0.001,-0.002,0.001
20:03:51,0.498,0.28,0.048,0.0,0.115,0.053,1.024,0.002,-0.001,-0.001
20:03:51,0.499,0.279,0.048,0.0,0.115,0.053,1.025,-0.003,-0.006,0.001
20:03:51,0.499,0.28,0.049,0.0,0.117,0.054,1.024,-0.007,-0.003,0.001
20:03:51,0.498,0.279,0.049,0.0,0.116,0.053,1.024,-0.003,0.001,-0.002
20:03:51,0.498,0.278,0.049,0.0,0.112,0.053,1.021,-0.003,0.012,-0.0
20:03:51,0.499,0.279,0.049,0.0,0.114,0.056,1.024,0.001,0.003,-0.001
20:03:51,0.499,0.278,0.049,0.0,0.114,0.056,1.024,0.004,0.004,-0.001
20:03:51,0.498,0.276,0.049,0.0,0.116,0.055,1.024,0.003,0.003,-0.003
20:03:51,0.496,0.278,0.049,0.0,0.117,0.054,1.025,0.001,0.004,-0.002
20:03:51,0.5,0.279,0.049,0.0,0.117,0.054,1.024,0.0,0.001,-0.002
20:03:51,0.499,0.28,0.049,0.0,0.117,0.055,1.026,0.003,0.001,-0.002
20:03:51,0.496,0.279,0.049,0.0,0.117,0.057,1.026,0.003,0.0,-0.003
20:03:52,0.496,0.278,0.049,0.0,0.116,0.056,1.026,0.002,0.001,-0.002
20:03:52,0.496,0.277,0.049,0.0,0.116,0.057,1.026,0.006,-0.001,0.0
20:03:52,0.499,0.276,0.048,0.0,0.115,0.055,1.023,0.007,-0.001,-0.002
20:03:52,0.496,0.274,0.048,0.0,0.115,0.054,1.023,0.003,0.001,0.002
20:03:52,0.496,0.273,0.048,0.0,0.116,0.056,1.023,0.003,-0.003,0.002
20:03:52,0.498,0.274,0.048,0.0,0.116,0.056,1.022,0.009,0.003,0.003
20:03:52,0.504,0.276,0.048,0.0,0.117,0.056,1.024,0.005,-0.002,0.002
20:03:52,0.504,0.276,0.048,0.0,0.116,0.056,1.026,-0.004,-0.009,0.0
20:03:52,0.502,0.275,0.049,0.0,0.117,0.056,1.025,-0.004,-0.011,0.001
20:03:52,0.502,0.277,0.049,0.0,0.117,0.055,1.026,-0.006,-0.01,-0.001
20:03:52,0.5,0.277,0.049,0.0,0.116,0.054,1.027,-0.005,-0.007,0.001
20:03:52,0.497,0.278,0.049,0.0,0.116,0.054,1.027,-0.004,-0.003,-0.003
20:03:52,0.495,0.278,0.049,0.0,0.116,0.054,1.026,-0.003,-0.001,-0.001
20:03:52,0.496,0.277,0.049,0.0,0.117,0.055,1.022,0.006,0.016,0.003
20:03:52,0.496,0.275,0.049,0.0,0.115,0.054,1.017,0.009,0.02,0.004
20:03:52,0.494,0.277,0.049,0.0,0.115,0.054,1.017,0.016,0.013,0.006
20:03:52,0.497,0.277,0.049,0.0,0.115,0.054,1.017,0.009,0.01,0.0
20:03:52,0.499,0.277,0.049,0.0,0.116,0.055,1.018,0.01,0.01,0.0
20:03:52,0.498,0.278,0.049,0.0,0.117,0.055,1.021,0.006,0.004,-0.0
20:03:52,0.5,0.278,0.049,0.0,0.117,0.055,1.023,0.007,0.004,0.001
20:03:52,0.499,0.277,0.049,0.0,0.115,0.056,1.024,0.008,0.002,0.004
20:03:52,0.5,0.26,0.047,0.0,0.116,0.056,1.026,0.003,0.004,-0.0
20:03:53,0.499,0.267,0.047,0.0,0.115,0.055,1.025,0.004,0.001,0.002
20:03:53,0.498,0.271,0.048,0.0,0.114,0.055,1.025,0.001,0.002,0.001
20:03:53,0.5,0.273,0.048,0.0,0.115,0.055,1.023,-0.001,-0.001,-0.002
20:03:53,0.499,0.274,0.048,0.0,0.115,0.056,1.024,-0.0,-0.0,-0.004
20:03:53,0.498,0.276,0.048,0.0,0.115,0.055,1.023,0.004,0.003,-0.002
20:03:53,0.5,0.276,0.048,0.0,0.116,0.054,1.024,0.011,-0.003,0.002
20:03:53,0.461,0.266,0.048,0.0,0.116,0.054,1.023,0.003,-0.003,0.0
20:03:53,0.474,0.27,0.049,0.0,0.115,0.054,1.024,0.002,0.006,0.004
20:03:53,0.483,0.272,0.049,0.0,0.115,0.054,1.023,-0.001,0.01,0.001
20:03:53,0.489,0.273,0.049,0.0,0.116,0.055,1.023,0.006,0.011,-0.0
20:03:53,0.491,0.274,0.049,0.0,0.116,0.055,1.023,0.007,0.007,0.0
20:03:53,0.495,0.276,0.049,0.0,0.115,0.055,1.022,0.002,0.007,0.001
20:03:53,0.497,0.278,0.049,0.0,0.115,0.054,1.024,-0.004,0.005,0.003
20:03:53,0.497,0.279,0.048,0.0,0.116,0.055,1.025,0.002,0.004,0.0
20:03:53,0.499,0.277,0.048,0.0,0.115,0.055,1.026,0.005,-0.001,-0.001
20:03:53,0.498,0.277,0.048,0.0,0.115,0.055,1.026,0.005,0.003,-0.001
20:03:53,0.498,0.275,0.049,0.0,0.116,0.055,1.025,-0.002,-0.003,-0.005
20:03:53,0.497,0.275,0.049,0.0,0.116,0.055,1.026,-0.005,-0.004,0.001
20:03:53,0.499,0.276,0.049,0.0,0.116,0.054,1.024,-0.005,-0.002,0.003
20:03:53,0.467,0.267,0.048,0.0,0.116,0.054,1.024,-0.002,-0.004,-0.0
20:03:53,0.472,0.27,0.048,0.0,0.115,0.056,1.022,-0.007,0.0,0.0
20:03:54,0.481,0.272,0.048,0.0,0.114,0.055,1.024,-0.001,-0.004,0.0
20:03:54,0.488,0.273,0.048,0.0,0.114,0.054,1.024,-0.004,-0.005,-0.002
20:03:54,0.492,0.276,0.048,0.0,0.116,0.057,1.029,-0.01,-0.016,-0.004
20:03:54,0.494,0.276,0.049,0.0,0.118,0.056,1.026,-0.007,-0.005,-0.004
20:03:54,0.493,0.274,0.049,0.0,0.118,0.056,1.024,-0.006,0.002,-0.003
20:03:54,0.494,0.275,0.049,0.0,0.117,0.056,1.023,-0.004,0.006,-0.001
20:03:54,0.493,0.275,0.048,0.0,0.118,0.055,1.022,0.003,0.005,0.002
20:03:54,0.496,0.276,0.048,0.0,0.116,0.053,1.022,0.001,0.013,0.002
20:03:54,0.496,0.276,0.048,0.0,0.117,0.055,1.021,0.003,0.023,0.002
20:03:54,0.498,0.276,0.049,0.0,0.117,0.054,1.019,0.004,0.023,0.003
20:03:54,0.498,0.276,0.049,0.0,0.118,0.057,1.022,0.002,0.014,-0.001
20:03:54,0.497,0.275,0.049,0.0,0.118,0.057,1.022,0.005,0.02,-0.001
20:03:54,0.497,0.268,0.049,0.0,0.117,0.057,1.024,0.001,0.02,-0.002
20:03:54,0.497,0.27,0.049,0.0,0.116,0.057,1.024,0.007,0.021,-0.001
20:03:54,0.499,0.272,0.049,0.0,0.116,0.059,1.023,0.006,0.019,-0.005
20:03:54,0.498,0.273,0.049,0.0,0.115,0.058,1.025,0.006,0.018,-0.001
20:03:54,0.498,0.274,0.049,0.0,0.116,0.057,1.026,0.008,0.011,0.002
20:03:54,0.495,0.273,0.049,0.0,0.116,0.058,1.027,0.01,0.005,-0.001
20:03:54,0.498,0.276,0.049,0.0,0.116,0.056,1.028,0.012,-0.003,-0.003
20:03:54,0.499,0.276,0.049,0.0,0.118,0.057,1.024,0.009,-0.001,-0.001
20:03:54,0.501,0.276,0.049,0.0,0.12,0.057,1.023,0.009,0.0,-0.0
20:03:54,0.501,0.278,0.049,0.0,0.119,0.057,1.024,0.004,0.002,-0.006
20:03:55,0.502,0.279,0.049,0.0,0.12,0.061,1.021,0.009,-0.007,-0.023
20:03:55,0.506,0.278,0.049,0.0,0.116,0.055,1.018,-0.01,-0.062,-0.066
20:03:55,0.503,0.278,0.049,0.0,0.116,0.056,1.02,-0.04,-0.017,-0.076
20:03:55,0.503,0.276,0.049,0.0,0.109,0.053,1.023,-0.111,-0.027,-0.347
20:03:55,0.503,0.276,0.049,0.0,0.112,0.048,1.032,-0.245,-0.234,-1.173
20:03:55,0.499,0.275,0.049,0.0,0.095,0.027,1.026,-0.185,0.032,-1.318
20:03:55,0.499,0.274,0.049,0.0,0.068,-0.018,1.027,-0.328,-0.146,-2.35
20:03:55,0.5,0.276,0.049,0.0,0.089,0.017,1.031,-0.706,-0.422,-1.967
20:03:55,0.499,0.276,0.049,0.0,0.083,-0.003,1.038,-0.802,-0.293,-1.429
20:03:55,0.496,0.275,0.049,0.0,0.072,-0.023,1.03,-0.785,-0.471,-0.815
20:03:55,0.502,0.278,0.048,0.0,0.106,-0.004,1.019,-0.285,-0.336,0.129
20:03:55,0.501,0.278,0.048,0.0,0.133,0.031,1.017,0.125,-0.13,0.371
20:03:55,0.499,0.277,0.048,0.0,0.157,0.036,1.01,0.131,0.16,-0.363
20:03:55,0.501,0.277,0.048,0.0,0.164,0.057,1.007,0.114,0.049,-0.604
20:03:55,0.505,0.281,0.048,0.0,0.147,0.043,1.003,0.111,-0.03,-0.393
20:03:55,0.505,0.272,0.048,0.0,0.147,0.048,1.005,0.174,-0.02,-0.17
20:03:55,0.467,0.272,0.045,0.0,0.136,0.039,1.014,0.235,0.116,-0.042
20:03:55,0.476,0.273,0.046,0.0,0.139,0.045,1.014,0.293,0.211,-0.034
20:03:55,0.482,0.273,0.047,0.0,0.132,0.051,1.016,0.273,0.15,-0.039
20:03:55,0.486,0.272,0.047,0.0,0.135,0.05,1.02,0.252,0.1,0.041
20:03:55,0.489,0.272,0.047,0.0,0.13,0.04,1.022,0.2,0.009,0.117
20:03:55,0.494,0.273,0.048,0.0,0.132,0.044,1.025,0.221,0.039,0.084
20:03:56,0.497,0.273,0.048,0.0,0.131,0.061,1.028,0.251,0.059,0.12
20:03:56,0.497,0.274,0.048,0.0,0.133,0.06,1.026,0.298,0.169,0.229
20:03:56,0.497,0.275,0.048,0.0,0.131,0.046,1.026,0.286,0.227,0.303
20:03:56,0.495,0.275,0.048,0.0,0.13,0.049,1.031,0.183,0.118,0.222
20:03:56,0.491,0.276,0.048,0.0,0.128,0.051,1.031,0.096,0.119,0.174
20:03:56,0.491,0.276,0.048,0.0,0.126,0.052,1.03,0.064,0.101,0.123
20:03:56,0.495,0.274,0.048,0.0,0.126,0.054,1.028,0.042,0.095,0.119
20:03:56,0.495,0.275,0.049,0.0,0.125,0.056,1.027,0.053,0.08,0.13
20:03:56,0.496,0.278,0.049,0.0,0.132,0.061,1.027,0.055,0.066,0.243
20:03:56,0.496,0.278,0.048,0.0,0.133,0.065,1.027,0.054,0.065,0.359
20:03:56,0.496,0.277,0.048,0.0,0.141,0.078,1.026,0.088,0.066,0.57
20:03:56,0.494,0.277,0.048,0.0,0.142,0.101,1.023,0.133,0.058,0.932
20:03:56,0.493,0.275,0.048,0.0,0.144,0.122,1.025,0.221,0.096,1.374
20:03:56,0.49,0.274,0.048,0.0,0.13,0.113,1.026,0.19,0.052,1.681
20:03:56,0.49,0.276,0.048,0.0,0.124,0.074,1.018,0.219,0.133,2.008
20:03:56,0.492,0.275,0.048,0.0,0.064,0.073,1.026,0.359,0.084,3.085
20:03:56,0.491,0.274,0.048,0.289,0.068,0.064,1.043,0.125,0.232,4.307
20:03:56,0.483,0.275,0.049,0.491,0.146,0.048,1.04,0.203,0.254,5.015
20:03:56,0.487,0.272,0.048,0.632,0.156,0.008,1.057,0.425,0.172,4.355
20:03:56,0.49,0.273,0.048,0.443,0.142,0.052,1.041,0.526,-0.176,3.611
20:03:56,0.49,0.273,0.048,0.31,0.122,0.119,1.045,0.629,-0.433,4.147
20:03:56,0.49,0.272,0.048,0.217,0.141,0.059,1.011,0.906,-0.224,4.514
20:03:57,0.494,0.272,0.048,0.152,0.156,-0.012,0.925,0.491,1.102,4.086
20:03:57,0.493,0.273,0.048,0.395,0.16,0.014,0.971,0.404,0.748,3.173
20:03:57,0.494,0.273,0.048,0.565,0.145,0.04,0.994,0.394,0.47,2.826
20:03:57,0.495,0.271,0.048,0.684,0.154,0.044,1.0,0.475,0.166,2.41
20:03:57,0.493,0.271,0.049,0.767,0.149,0.05,0.991,0.25,0.402,2.159
20:03:57,0.492,0.271,0.048,0.825,0.164,0.049,1.022,-0.004,0.661,1.598
20:03:57,0.492,0.271,0.048,0.866,0.152,0.048,1.023,-0.013,0.478,1.137
20:03:57,0.483,0.271,0.048,0.894,0.139,0.051,1.025,-0.045,0.45,0.846
20:03:57,0.485,0.271,0.048,0.914,0.114,0.059,1.022,0.077,0.301,0.669
20:03:57,0.485,0.271,0.048,0.927,0.093,0.075,1.005,0.073,0.356,1.08
20:03:57,0.482,0.271,0.048,0.949,0.138,0.062,1.017,0.147,0.353,1.251
20:03:57,0.483,0.27,0.048,0.964,0.149,0.046,0.891,0.311,1.877,1.553
20:03:57,0.485,0.269,0.048,0.975,0.186,0.063,0.947,0.492,0.84,1.412
20:03:57,0.486,0.27,0.048,0.682,0.173,0.078,0.981,0.604,-0.094,1.273
20:03:57,0.488,0.27,0.048,0.478,0.173,0.091,0.998,0.492,-0.219,0.836
20:03:57,0.49,0.27,0.048,0.334,0.155,0.101,1.002,0.338,-0.184,0.787
20:03:57,0.492,0.272,0.048,0.234,0.179,0.1,1.001,0.391,-0.234,0.916
20:03:57,0.492,0.272,0.048,0.164,0.19,0.109,1.028,0.318,-0.374,0.721
20:03:57,0.491,0.272,0.048,0.115,0.199,0.109,1.025,0.245,-0.486,0.636
20:03:57,0.493,0.272,0.048,0.08,0.203,0.109,1.012,0.09,-0.584,0.395
20:03:57,0.492,0.27,0.048,0.056,0.202,0.107,1.011,0.002,-0.374,0.246
20:03:58,0.491,0.27,0.047,0.321,0.202,0.104,1.008,-0.073,-0.224,0.211
20:03:58,0.491,0.269,0.047,0.507,0.204,0.102,1.006,-0.071,-0.117,0.172
20:03:58,0.483,0.267,0.047,0.639,0.209,0.101,1.006,-0.058,0.031,0.134
20:03:58,0.483,0.268,0.047,0.74,0.207,0.099,1.008,-0.062,0.147,0.125
20:03:58,0.483,0.269,0.047,0.813,0.201,0.1,1.01,0.045,0.197,0.078
20:03:58,0.485,0.27,0.047,0.867,0.198,0.106,1.019,0.058,0.217,0.067
20:03:58,0.483,0.269,0.047,0.907,0.194,0.102,1.011,0.148,0.206,0.098
20:03:58,0.483,0.268,0.047,0.935,0.192,0.101,1.001,0.166,0.157,0.036
20:03:58,0.483,0.268,0.047,0.946,0.191,0.105,1.002,0.136,0.065,0.025
20:03:58,0.479,0.264,0.046,0.953,0.193,0.102,1.001,0.053,0.059,-0.029
20:03:58,0.48,0.265,0.046,0.956,0.189,0.106,1.005,0.076,0.067,-0.111
20:03:58,0.479,0.267,0.047,0.952,0.189,0.106,1.008,-0.028,0.115,-0.022
20:03:58,0.481,0.268,0.047,0.943,0.189,0.107,1.01,-0.066,-0.003,-0.039
20:03:58,0.479,0.269,0.047,0.938,0.187,0.106,1.01,-0.131,-0.037,0.04
20:03:58,0.489,0.271,0.047,0.938,0.188,0.102,1.007,-0.186,0.049,0.032
20:03:58,0.489,0.27,0.047,0.941,0.185,0.1,1.01,-0.191,0.217,0.022
20:03:58,0.485,0.269,0.047,0.943,0.172,0.094,1.012,-0.124,0.324,0.074
20:03:58,0.487,0.27,0.047,0.947,0.2,0.109,1.016,-0.023,0.153,0.022
20:03:58,0.486,0.269,0.046,0.954,0.195,0.104,1.015,0.095,0.055,-0.028
20:03:58,0.491,0.269,0.046,0.954,0.188,0.104,1.013,0.144,0.006,-0.017
20:03:58,0.491,0.27,0.046,0.947,0.185,0.104,1.012,0.086,0.037,-0.016
20:03:58,0.491,0.269,0.046,0.933,0.185,0.099,1.007,0.106,0.092,-0.062
20:03:59,0.488,0.268,0.046,0.917,0.179,0.102,1.014,0.09,0.098,-0.057
20:03:59,0.489,0.268,0.046,0.901,0.176,0.103,1.013,0.076,0.058,-0.052
20:03:59,0.487,0.269,0.046,0.931,0.173,0.104,1.013,-0.041,0.046,-0.009
20:03:59,0.488,0.27,0.046,0.951,0.171,0.105,1.016,-0.07,0.061,0.068
20:03:59,0.483,0.269,0.046,0.966,0.168,0.103,1.019,0.034,0.06,0.073
20:03:59,0.483,0.268,0.046,0.976,0.159,0.101,1.014,0.052,0.007,0.114
20:03:59,0.477,0.269,0.046,0.983,0.162,0.099,1.01,-0.004,0.035,0.165
20:03:59,0.463,0.243,0.046,0.988,0.175,0.1,1.007,-0.031,0.079,0.16
20:03:59,0.469,0.25,0.046,0.986,0.188,0.115,1.01,0.006,-0.027,0.129
20:03:59,0.473,0.256,0.046,0.977,0.188,0.112,1.013,0.077,-0.156,0.059
20:03:59,0.474,0.261,0.046,0.961,0.179,0.111,1.011,0.024,-0.07,0.103
20:03:59,0.479,0.264,0.046,0.955,0.181,0.114,1.007,0.056,0.03,0.051
20:03:59,0.48,0.265,0.046,0.954,0.179,0.112,1.012,0.192,0.089,0.001
20:03:59,0.483,0.267,0.046,0.668,0.171,0.112,1.014,0.1,0.068,0.058
20:03:59,0.483,0.267,0.046,0.758,0.176,0.114,1.011,0.022,0.03,0.072
20:03:59,0.483,0.266,0.046,0.82,0.177,0.115,1.011,0.032,-0.022,0.075
20:03:59,0.485,0.269,0.046,0.864,0.178,0.114,1.015,-0.063,-0.008,0.105
20:03:59,0.487,0.269,0.046,0.894,0.175,0.112,1.011,-0.098,0.049,0.053
20:03:59,0.484,0.269,0.046,0.922,0.172,0.111,1.008,-0.089,0.013,0.034
20:03:59,0.482,0.268,0.046,0.945,0.187,0.105,1.011,-0.11,-0.09,0.05
20:03:59,0.482,0.269,0.046,0.962,0.173,0.108,1.01,-0.062,-0.062,0.163
20:03:59,0.487,0.262,0.046,0.973,0.165,0.109,1.015,-0.154,-0.062,0.184
20:04:00,0.488,0.264,0.046,0.981,0.17,0.106,1.013,-0.205,-0.154,0.143
20:04:00,0.486,0.264,0.046,0.987,0.176,0.102,1.012,-0.162,-0.193,0.11
20:04:00,0.484,0.265,0.046,0.991,0.181,0.102,1.006,-0.114,-0.099,0.088
20:04:00,0.483,0.265,0.046,0.994,0.18,0.099,1.009,-0.058,-0.048,0.039
20:04:00,0.481,0.266,0.045,0.994,0.179,0.1,1.01,0.012,0.054,0.037
20:04:00,0.48,0.267,0.046,0.994,0.17,0.101,1.017,0.144,0.129,0.058
20:04:00,0.481,0.267,0.046,0.991,0.167,0.102,1.006,0.105,0.09,-0.028
20:04:00,0.48,0.267,0.046,0.983,0.179,0.102,1.004,0.197,0.146,-0.134
20:04:00,0.481,0.267,0.045,0.968,0.175,0.106,1.016,0.1,0.282,-0.144
20:04:00,0.482,0.267,0.045,0.94,0.173,0.107,1.021,0.142,0.516,-0.056
20:04:00,0.482,0.267,0.045,0.871,0.165,0.108,1.014,0.088,0.573,-0.072
20:04:00,0.481,0.266,0.045,0.812,0.157,0.11,1.017,-0.08,0.54,-0.08
20:04:00,0.481,0.268,0.045,0.759,0.157,0.108,1.008,-0.313,0.473,-0.101
20:04:00,0.484,0.267,0.045,0.679,0.151,0.1,1.01,-0.265,0.328,-0.109
20:04:00,0.472,0.269,0.045,0.623,0.143,0.095,1.012,-0.202,0.277,-0.094
20:04:00,0.477,0.269,0.045,0.584,0.142,0.095,1.013,-0.101,0.291,-0.098
20:04:00,0.481,0.269,0.045,0.557,0.136,0.096,1.017,-0.095,0.321,-0.109
20:04:00,0.484,0.268,0.045,0.538,0.151,0.093,1.017,-0.065,0.209,-0.137
20:04:00,0.486,0.267,0.045,0.54,0.14,0.094,1.02,-0.048,0.27,-0.106
20:04:00,0.491,0.266,0.045,0.56,0.133,0.094,1.023,0.052,0.281,-0.129
20:04:00,0.485,0.264,0.045,0.573,0.117,0.105,1.025,0.105,0.161,-0.146
20:04:00,0.482,0.265,0.044,0.585,0.117,0.096,1.012,0.206,0.189,-0.12
20:04:01,0.483,0.267,0.045,0.595,0.118,0.099,1.011,0.064,0.052,-0.041
20:04:01,0.481,0.268,0.045,0.592,0.118,0.099,1.019,0.056,-0.001,-0.021
20:04:01,0.48,0.269,0.045,0.582,0.119,0.1,1.023,0.064,0.01,-0.029
20:04:01,0.479,0.268,0.045,0.588,0.122,0.097,1.009,0.25,-0.003,0.001
20:04:01,0.482,0.269,0.045,0.646,0.119,0.103,1.016,0.288,-0.008,0.035
20:04:01,0.483,0.268,0.045,0.737,0.113,0.098,1.004,0.232,-0.063,0.169
20:04:01,0.485,0.268,0.045,0.816,0.112,0.096,1.009,0.372,0.013,0.305
20:04:01,0.484,0.267,0.045,0.871,0.121,0.096,1.012,0.249,0.074,0.374
20:04:01,0.484,0.267,0.045,0.91,0.132,0.116,0.998,0.051,0.024,0.313
20:04:01,0.482,0.265,0.045,0.937,0.139,0.127,1.005,0.069,-0.094,0.207
20:04:01,0.476,0.266,0.045,0.954,0.144,0.123,1.004,0.089,-0.167,-0.049
20:04:01,0.477,0.266,0.045,0.95,0.138,0.123,1.008,-0.034,-0.131,-0.335
20:04:01,0.479,0.266,0.045,0.928,0.136,0.121,1.011,-0.022,-0.069,-0.358
20:04:01,0.478,0.266,0.045,0.79,0.124,0.095,1.002,-0.13,-0.083,-0.319
20:04:01,0.48,0.268,0.045,0.693,0.123,0.101,1.009,-0.175,-0.034,-0.221
20:04:01,0.479,0.266,0.045,0.626,0.127,0.106,1.012,-0.04,0.037,-0.219
20:04:01,0.48,0.267,0.045,0.578,0.122,0.109,1.012,0.087,0.098,-0.168
20:04:01,0.483,0.269,0.045,0.545,0.122,0.117,1.014,0.129,0.012,-0.052
20:04:01,0.485,0.268,0.045,0.53,0.121,0.118,1.019,0.066,0.047,-0.027
20:04:01,0.489,0.269,0.045,0.522,0.121,0.121,1.025,0.078,0.016,-0.016
20:04:01,0.489,0.27,0.045,0.518,0.117,0.124,1.022,0.092,-0.043,-0.004
20:04:01,0.487,0.269,0.045,0.52,0.114,0.125,1.023,0.027,-0.022,0.071
20:04:02,0.48,0.268,0.045,0.525,0.121,0.125,1.026,0.006,-0.02,0.077
20:04:02,0.481,0.267,0.045,0.53,0.126,0.123,1.025,0.11,0.03,0.009
20:04:02,0.482,0.267,0.045,0.536,0.12,0.126,1.02,0.219,0.052,0.013
20:04:02,0.48,0.267,0.045,0.542,0.118,0.126,1.007,0.192,0.07,0.017
20:04:02,0.481,0.267,0.045,0.557,0.12,0.127,1.009,0.286,0.084,-0.021
20:04:02,0.48,0.268,0.045,0.574,0.125,0.129,1.01,0.416,0.062,-0.1
20:04:02,0.483,0.269,0.045,0.402,0.12,0.142,1.018,0.434,-0.025,-0.142
20:04:02,0.481,0.27,0.045,0.475,0.116,0.142,1.007,0.474,-0.074,-0.168
20:04:02,0.482,0.267,0.045,0.526,0.113,0.155,1.007,0.356,-0.035,-0.109
20:04:02,0.482,0.268,0.045,0.368,0.099,0.168,1.012,0.092,-0.064,0.023
20:04:02,0.473,0.268,0.045,0.449,0.125,0.16,0.991,0.237,0.161,0.032
20:04:02,0.472,0.267,0.045,0.508,0.127,0.162,0.995,0.195,0.057,-0.01
20:04:02,0.473,0.267,0.045,0.549,0.125,0.162,1.004,0.139,0.01,-0.005
20:04:02,0.476,0.268,0.045,0.572,0.122,0.163,1.006,0.099,-0.136,0.002
20:04:02,0.479,0.268,0.045,0.582,0.125,0.165,1.008,0.157,-0.247,-0.004
20:04:02,0.48,0.266,0.045,0.589,0.126,0.163,1.0,0.203,-0.223,0.003
20:04:02,0.477,0.266,0.044,0.563,0.132,0.174,1.006,0.228,-0.281,-0.005
20:04:02,0.477,0.266,0.044,0.533,0.134,0.174,1.006,0.174,-0.314,0.003
20:04:02,0.479,0.266,0.044,0.513,0.136,0.179,1.008,0.091,-0.236,0.065
20:04:02,0.474,0.266,0.044,0.53,0.134,0.18,1.012,0.127,-0.05,0.021
20:04:02,0.477,0.268,0.044,0.566,0.132,0.179,1.014,0.223,0.023,0.049
20:04:03,0.479,0.267,0.044,0.603,0.132,0.18,1.013,0.213,0.081,0.058
20:04:03,0.478,0.267,0.045,0.63,0.131,0.179,1.015,0.246,0.084,0.057
20:04:03,0.48,0.268,0.045,0.65,0.14,0.186,1.013,0.216,0.113,0.011
20:04:03,0.477,0.265,0.045,0.669,0.125,0.178,1.005,0.209,0.158,-0.027
20:04:03,0.479,0.267,0.045,0.679,0.133,0.202,1.007,0.225,-0.049,0.127
20:04:03,0.478,0.268,0.045,0.687,0.139,0.205,1.018,0.099,-0.095,0.191
20:04:03,0.48,0.269,0.045,0.696,0.139,0.211,1.034,0.44,-0.7,0.13
20:04:03,0.475,0.267,0.045,0.7,0.145,0.202,0.993,0.467,-0.903,0.121
20:04:03,0.479,0.268,0.044,0.702,0.172,0.201,0.993,0.43,-0.833,-0.136
20:04:03,0.481,0.268,0.044,0.704,0.161,0.211,0.97,0.178,-0.747,-0.094
20:04:03,0.482,0.267,0.045,0.704,0.172,0.206,0.981,0.007,-0.422,-0.009
20:04:03,0.482,0.267,0.044,0.702,0.176,0.205,0.984,0.056,-0.23,-0.067
20:04:03,0.482,0.267,0.044,0.7,0.174,0.205,0.98,0.112,-0.035,-0.097
20:04:03,0.483,0.267,0.044,0.704,0.176,0.204,0.984,-0.053,0.012,-0.094
20:04:03,0.485,0.267,0.044,0.708,0.179,0.215,0.998,0.003,-0.033,-0.062
20:04:03,0.486,0.266,0.044,0.712,0.181,0.212,0.999,0.148,0.004,-0.039
20:04:03,0.486,0.268,0.044,0.714,0.176,0.207,0.993,0.017,0.096,-0.033
20:04:03,0.485,0.269,0.044,0.715,0.178,0.208,0.999,0.017,0.097,-0.058
20:04:03,0.481,0.268,0.041,0.715,0.176,0.212,1.003,0.155,0.052,-0.076
20:04:03,0.481,0.269,0.042,0.716,0.176,0.212,0.997,0.11,-0.047,-0.048
20:04:03,0.48,0.27,0.043,0.717,0.177,0.214,0.995,0.053,-0.075,-0.028
20:04:03,0.481,0.269,0.043,0.717,0.182,0.212,0.993,0.028,-0.102,-0.031
20:04:04,0.48,0.268,0.043,0.717,0.188,0.204,0.986,0.014,-0.087,-0.116
20:04:04,0.473,0.266,0.043,0.719,0.181,0.202,0.988,0.009,-0.035,-0.092
20:04:04,0.472,0.266,0.043,0.719,0.181,0.21,0.99,0.023,-0.063,-0.021
20:04:04,0.474,0.266,0.043,0.72,0.183,0.21,0.993,0.008,-0.081,-0.042
20:04:04,0.473,0.265,0.044,0.72,0.184,0.211,0.989,-0.011,-0.091,-0.071
20:04:04,0.476,0.264,0.043,0.719,0.183,0.209,0.985,-0.035,0.028,-0.043
20:04:04,0.478,0.264,0.043,0.719,0.197,0.225,1.005,0.005,-0.314,-0.016
20:04:04,0.442,0.238,0.043,0.709,0.197,0.222,0.998,-0.188,-0.248,0.087
20:04:04,0.452,0.248,0.044,0.634,0.208,0.21,1.017,-0.476,-0.482,0.128
20:04:04,0.46,0.255,0.044,0.581,0.186,0.217,0.991,-0.569,-1.012,0.014
20:04:04,0.467,0.258,0.045,0.546,0.188,0.202,0.972,-0.66,-0.438,0.122
20:04:04,0.47,0.261,0.045,0.576,0.196,0.199,0.995,-0.642,-0.066,0.188
20:04:04,0.476,0.264,0.045,0.605,0.2,0.192,0.982,-0.516,0.346,0.188
20:04:04,0.476,0.265,0.045,0.635,0.18,0.184,0.995,-0.433,1.097,0.153
20:04:04,0.476,0.267,0.044,0.663,0.131,0.175,1.041,-0.167,0.186,0.146
20:04:04,0.478,0.267,0.044,0.683,0.146,0.168,1.037,0.375,0.611,0.025
20:04:04,0.482,0.268,0.044,0.695,0.161,0.172,1.04,0.386,0.274,-0.005
20:04:04,0.48,0.266,0.044,0.703,0.165,0.178,1.023,0.177,0.181,0.034
20:04:04,0.479,0.266,0.043,0.708,0.155,0.175,1.021,0.035,0.206,0.035
20:04:04,0.481,0.266,0.044,0.711,0.164,0.17,1.026,0.02,0.178,-0.045
20:04:04,0.481,0.268,0.044,0.497,0.157,0.175,1.023,-0.098,0.137,-0.028
20:04:04,0.482,0.269,0.045,0.348,0.161,0.177,1.02,-0.115,-0.028,0.016
20:04:05,0.482,0.27,0.044,0.244,0.168,0.172,1.012,0.004,-0.235,0.031
20:04:05,0.485,0.27,0.044,0.171,0.176,0.17,1.004,0.152,-0.282,0.047
20:04:05,0.486,0.269,0.044,0.119,0.191,0.17,1.006,0.254,-0.408,-0.097
20:04:05,0.485,0.27,0.045,0.084,0.185,0.174,1.008,0.481,-0.612,-0.201
20:04:05,0.487,0.269,0.045,0.251,0.2,0.168,0.965,0.552,-0.621,-0.091
20:04:05,0.486,0.268,0.045,0.377,0.205,0.179,0.963,0.374,-0.287,-0.097
20:04:05,0.485,0.267,0.044,0.471,0.2,0.184,0.983,0.055,0.016,0.058
20:04:05,0.487,0.267,0.044,0.537,0.196,0.188,0.995,-0.013,0.21,-0.002
20:04:05,0.484,0.268,0.044,0.583,0.189,0.194,1.006,-0.067,0.374,0.091
20:04:05,0.484,0.268,0.044,0.615,0.188,0.191,1.005,-0.0,0.15,0.082
20:04:05,0.484,0.269,0.044,0.637,0.181,0.188,0.987,0.022,0.114,0.066
20:04:05,0.48,0.268,0.044,0.652,0.182,0.186,0.986,-0.019,0.196,0.094
20:04:05,0.481,0.269,0.044,0.663,0.185,0.187,0.988,0.024,0.33,0.023
20:04:05,0.484,0.27,0.044,0.673,0.181,0.186,0.989,-0.011,0.285,0.023
20:04:05,0.446,0.26,0.045,0.68,0.176,0.181,0.984,-0.069,0.318,0.021
20:04:05,0.457,0.263,0.045,0.687,0.188,0.183,0.994,-0.05,0.158,-0.001
20:04:05,0.463,0.264,0.044,0.696,0.18,0.178,0.993,-0.06,0.056,-0.002
20:04:05,0.475,0.268,0.045,0.703,0.182,0.181,1.008,-0.019,0.08,0.023
20:04:05,0.478,0.267,0.045,0.709,0.179,0.183,1.011,-0.026,0.057,0.025
20:04:05,0.479,0.267,0.045,0.713,0.174,0.179,1.004,-0.017,0.116,0.038
20:04:05,0.481,0.268,0.044,0.716,0.177,0.178,1.005,0.039,0.168,0.031
20:04:06,0.481,0.268,0.045,0.718,0.181,0.187,1.004,0.025,0.154,0.032
20:04:06,0.48,0.267,0.045,0.719,0.177,0.187,1.006,0.029,0.03,0.036
20:04:06,0.477,0.269,0.045,0.72,0.172,0.184,1.001,0.09,0.041,0.056
20:04:06,0.475,0.268,0.044,0.72,0.169,0.185,0.995,0.063,0.091,0.056
20:04:06,0.478,0.267,0.044,0.721,0.171,0.184,1.003,0.007,0.04,0.064
20:04:06,0.475,0.267,0.044,0.721,0.171,0.179,0.988,-0.017,-0.028,0.035
20:04:06,0.474,0.267,0.044,0.72,0.171,0.179,0.998,-0.072,0.016,0.017
20:04:06,0.485,0.262,0.045,0.72,0.171,0.179,0.997,-0.055,0.001,0.044
20:04:06,0.484,0.265,0.045,0.721,0.173,0.176,0.997,-0.027,0.014,0.031
20:04:06,0.482,0.267,0.044,0.722,0.171,0.176,0.993,-0.018,0.014,0.014
20:04:06,0.48,0.267,0.044,0.721,0.177,0.177,0.996,-0.095,-0.04,-0.015
20:04:06,0.479,0.268,0.044,0.721,0.177,0.178,0.996,-0.092,-0.087,-0.03
20:04:06,0.481,0.268,0.043,0.72,0.172,0.176,0.995,-0.155,-0.044,-0.004
20:04:06,0.481,0.267,0.044,0.721,0.171,0.176,1.001,-0.122,-0.008,-0.004
20:04:06,0.482,0.267,0.044,0.721,0.17,0.171,0.996,-0.046,0.014,-0.023
20:04:06,0.482,0.268,0.044,0.72,0.172,0.173,1.0,-0.078,0.014,-0.009
20:04:06,0.481,0.268,0.044,0.72,0.177,0.171,1.004,-0.057,0.001,-0.006
20:04:06,0.48,0.267,0.044,0.719,0.176,0.173,1.01,-0.073,-0.031,-0.015
20:04:06,0.481,0.269,0.044,0.719,0.175,0.172,1.005,-0.056,0.013,-0.004
20:04:06,0.48,0.269,0.044,0.719,0.175,0.172,1.006,-0.045,0.006,-0.014
20:04:06,0.479,0.27,0.044,0.719,0.176,0.173,1.004,-0.023,0.135,-0.023
20:04:06,0.478,0.269,0.044,0.719,0.187,0.172,1.027,0.181,0.026,-0.098
20:04:07,0.448,0.267,0.044,0.719,0.199,0.18,0.998,0.749,-1.376,-0.273
20:04:07,0.459,0.267,0.044,0.713,0.189,0.181,0.962,0.302,-0.404,-0.22
20:04:07,0.468,0.268,0.044,0.683,0.185,0.181,0.993,0.09,0.069,-0.148
20:04:07,0.473,0.269,0.044,0.645,0.197,0.197,0.996,-0.313,0.053,-0.067
20:04:07,0.474,0.268,0.044,0.608,0.193,0.176,0.99,-0.303,0.025,-0.135
20:04:07,0.477,0.268,0.043,0.563,0.188,0.18,0.994,-0.298,0.134,-0.056
20:04:07,0.479,0.267,0.043,0.533,0.188,0.171,0.993,-0.377,0.156,-0.18
20:04:07,0.48,0.267,0.043,0.511,0.182,0.164,1.003,-0.324,0.199,-0.166
20:04:07,0.479,0.267,0.043,0.496,0.173,0.153,1.005,-0.239,0.078,-0.121
20:04:07,0.48,0.267,0.043,0.486,0.163,0.149,1.006,-0.173,0.027,-0.097
20:04:07,0.481,0.267,0.043,0.479,0.157,0.145,1.005,-0.135,0.023,-0.036
20:04:07,0.482,0.266,0.043,0.474,0.158,0.139,1.001,-0.093,0.047,-0.002
20:04:07,0.482,0.266,0.043,0.47,0.164,0.14,1.006,-0.007,-0.028,-0.044
20:04:07,0.485,0.266,0.044,0.467,0.155,0.139,1.006,-0.079,0.048,0.012
20:04:07,0.486,0.266,0.044,0.49,0.148,0.14,1.011,0.005,0.116,0.155
20:04:07,0.483,0.266,0.043,0.553,0.153,0.141,1.01,0.028,0.121,0.108
20:04:07,0.485,0.268,0.043,0.603,0.147,0.139,1.011,0.054,0.041,0.058
20:04:07,0.485,0.267,0.043,0.653,0.146,0.139,1.013,0.243,-0.081,0.028
