label,thumb_mean,thumb_std,index_mean,index_std,middle_mean,middle_std,ring_mean,ring_std,pinky_mean,pinky_std,accX_mean,accX_std,accY_mean,accY_std,accZ_mean,accZ_std,gyroX_mean,gyroX_std,gyroY_mean,gyroY_std,gyroZ_mean,gyroZ_std
HELLO,1190.75,1.41,0.0,0.0,910.2,1.03,35.7,1.35,553.65,2.99,13909.0,173.51,452.2,122.15,9407.4,196.55,-340.7,131.69,178.3,238.33,77.65,145.13
HELLO,1192.15,1.68,0.0,0.0,910.5,1.16,37.2,2.09,554.4,1.93,13977.0,192.36,390.6,143.72,9364.6,130.05,-367.05,196.18,228.8,224.84,56.05,106.45
HELLO,1192.8,2.06,0.0,0.0,909.75,1.09,37.6,2.71,553.35,3.48,13444.4,1445.8,-997.0,2665.94,9720.6,540.61,-1468.7,1476.11,1313.7,1092.86,3445.7,3985.07
HELLO,1193.0,1.76,0.0,0.0,909.85,1.06,41.3,2.03,544.25,2.81,12008.8,1240.67,-5678.6,1636.91,10061.4,816.33,-209.75,522.51,-804.9,800.35,-2168.9,1506.36
HELLO,1194.2,2.14,0.0,0.0,909.5,2.84,42.05,2.85,544.85,1.19,14388.2,384.58,-936.8,1506.76,8429.0,491.04,-68.55,495.11,-295.35,387.73,-1955.75,1013.45
HELLO,1194.25,1.81,1.0,4.36,909.5,1.4,34.4,4.32,543.85,1.8,14801.6,167.36,2361.6,833.43,7521.0,301.81,-138.25,544.44,-42.65,343.13,-916.85,704.42
HELLO,1192.7,5.74,18.15,7.89,909.8,1.29,41.3,1.68,546.3,1.85,14567.0,171.85,4441.8,954.06,6900.0,430.66,-22.3,801.33,-124.6,313.82,-1170.9,612.71
HELLO,1194.05,1.07,8.55,10.51,909.9,0.94,36.45,5.84,544.5,0.74,13805.8,292.94,7436.8,945.18,6045.0,391.9,-247.75,759.44,262.15,479.79,-570.6,1420.73
HELLO,1193.55,2.06,0.0,0.0,908.2,7.97,33.1,2.02,543.7,1.05,14012.0,241.6,5418.8,880.74,7319.6,545.81,-864.2,468.09,915.7,365.7,1476.05,391.49
HELLO,1194.25,1.51,0.0,0.0,909.45,0.86,35.2,3.47,543.6,1.28,14192.6,114.21,2954.2,548.02,8446.4,298.12,-492.1,304.93,637.7,214.61,899.05,322.12
HELLO,1194.25,1.89,0.0,0.0,910.7,4.09,36.1,2.19,545.1,1.14,14016.4,162.29,635.8,805.24,9189.6,201.04,-639.25,185.85,479.35,266.68,1243.0,346.55
HELLO,1194.5,1.96,0.0,0.0,909.8,1.03,36.55,1.5,543.95,1.2,13639.8,251.88,-1492.8,553.76,9661.4,186.98,-559.9,146.76,573.1,168.37,1019.05,167.46
HELLO,1195.4,1.28,0.0,0.0,907.9,2.9,22.95,9.29,516.65,22.87,13313.2,957.66,401.0,6867.34,8453.2,2719.9,435.2,2754.1,-1546.2,3130.6,-2837.05,8836.18
HELLO,1194.2,3.25,0.0,0.0,908.15,1.19,0.7,2.19,312.65,70.07,13009.0,1654.86,-1420.4,9018.31,6122.8,2801.68,-1319.55,5351.18,994.75,4957.35,4403.55,17901.61
HELLO,1192.8,3.03,0.0,0.0,909.2,1.03,0.0,0.0,193.3,27.44,12234.0,2872.76,-1255.6,10404.95,5214.8,3823.73,885.2,5962.36,-2251.0,9033.7,-5775.2,21894.29
HELLO,1193.6,2.58,0.0,0.0,908.9,2.95,0.0,0.0,179.9,33.88,14080.2,1081.15,1308.4,9895.79,2502.8,4881.89,-1491.35,9047.5,709.8,10525.12,2398.2,21217.9
HELLO,1192.75,3.58,0.0,0.0,908.15,2.92,0.0,0.0,223.5,19.67,14684.4,2185.43,-3722.0,7638.48,3908.4,1437.74,-782.3,4723.94,651.8,4665.62,2284.6,19250.94
HELLO,1194.0,3.08,0.0,0.0,910.05,1.63,0.0,0.0,234.45,17.6,14652.8,2140.46,-799.4,7404.01,4547.2,1601.23,-723.05,5458.05,94.55,4373.51,-4.4,18530.37
HELLO,1194.2,2.32,0.0,0.0,908.7,1.14,0.0,0.0,246.8,15.49,14600.6,1986.64,-3046.2,6254.42,5136.8,1912.41,-283.8,5219.71,142.8,5914.99,150.7,16804.52
HELLO,1195.0,2.3,0.0,0.0,908.45,1.32,0.0,0.0,203.85,12.57,15332.2,1863.93,1194.6,7178.24,3012.6,2019.69,-334.45,6749.05,833.25,5967.78,-817.0,19294.42
HELLO,1194.25,1.41,0.0,0.0,908.15,1.96,0.0,0.0,204.85,18.98,13933.2,2016.22,-2582.6,8426.38,4472.0,2792.5,-1335.55,4511.96,-371.9,7748.91,909.15,21646.07
HELLO,1195.4,5.77,0.0,0.0,907.05,1.47,0.0,0.0,150.05,32.5,14971.0,1611.33,-2252.8,6574.41,3682.4,2436.81,-1333.6,4915.22,-713.75,6942.33,-562.4,19183.59
HELLO,1193.1,8.44,0.0,0.0,907.55,1.83,0.0,0.0,140.45,7.23,14740.2,1495.1,-2868.2,5592.69,4357.0,1816.19,-152.25,3548.3,933.25,3815.63,1733.85,15424.06
HELLO,1196.0,1.48,0.0,0.0,908.9,1.89,0.0,0.0,136.1,5.52,15872.8,1215.11,-1723.4,4928.46,3878.6,721.08,-393.35,3511.52,-372.5,3094.96,263.15,13302.68
HELLO,1196.25,3.34,0.0,0.0,909.5,1.36,0.0,0.0,138.15,9.4,16461.0,3086.09,-408.8,5504.87,2059.8,2465.93,-582.75,3928.5,146.35,7264.36,-2051.45,16087.64
HELLO,1196.1,2.45,0.0,0.0,910.0,6.8,0.0,0.0,136.0,12.66,16078.8,983.64,99.2,4761.61,2637.6,1144.71,-1001.35,3806.3,848.4,4153.31,2231.15,15764.82
HELLO,1194.55,4.25,0.0,0.0,906.0,9.31,0.0,0.0,129.75,8.99,15366.8,1429.45,-2364.8,6989.58,3875.4,796.84,-443.45,4539.37,-218.85,3249.41,931.1,16541.36
HELLO,1196.6,4.2,0.0,0.0,909.05,8.15,0.0,0.0,124.7,8.71,15238.8,1019.41,1510.6,6382.62,3634.0,1239.87,22.2,6361.53,302.05,2873.32,-2099.95,19665.76
HELLO,1194.5,3.22,0.0,0.0,906.3,13.36,0.0,0.0,126.05,14.2,15137.8,1201.35,-319.6,7257.03,2306.0,1838.6,22.5,8150.38,-1254.75,4542.0,-1457.65,20538.81
HELLO,1193.85,6.99,0.0,0.0,902.9,10.56,0.0,0.0,112.75,7.85,15436.0,1692.48,-507.6,7286.36,2075.6,952.56,-418.7,7659.21,-409.9,2986.34,-715.3,20830.59
HELLO,1196.85,8.85,0.0,0.0,905.4,7.72,0.0,0.0,124.2,9.95,15556.2,1533.69,677.4,6354.47,2493.2,1238.44,-1829.25,6752.94,557.55,2189.99,3743.05,16446.97
HELLO,1194.35,4.98,0.0,0.0,904.95,9.57,0.0,0.0,117.9,6.27,15194.8,882.18,-2297.6,5779.02,3172.4,1573.26,37.25,2284.23,-584.65,5136.17,-2755.05,16162.46
HELLO,1192.15,12.5,0.0,0.0,907.45,9.92,0.0,0.0,145.15,14.83,15642.4,1000.09,601.8,5192.02,3682.0,1109.96,-984.4,3310.43,1333.15,2592.2,2128.3,15893.0
HELLO,1192.75,11.67,0.0,0.0,907.1,7.66,0.0,0.0,134.4,20.93,14413.8,1014.84,-3537.8,7160.11,3816.2,1702.01,-675.2,4403.79,-15.0,3677.83,1390.4,18318.25
HELLO,1192.95,7.96,0.0,0.0,909.4,8.52,0.0,0.0,130.4,14.95,12625.0,2707.54,-154.4,11918.85,-949.4,5242.82,-1409.95,5131.99,-2362.6,9393.64,-4175.5,23675.53
HELLO,1195.25,5.03,0.0,0.0,908.55,8.86,0.0,0.0,111.9,10.61,14717.0,2929.31,-2293.8,6431.73,3119.6,3845.57,-62.35,3732.67,1107.6,7826.56,-1611.15,15981.68
HELLO,1195.35,4.41,0.0,0.0,910.45,1.94,0.0,0.0,84.7,8.17,14538.6,1171.38,1933.4,8386.79,-110.4,3162.84,-1804.9,5062.17,1409.15,6083.31,1918.4,18831.82
HELLO,1197.8,1.6,0.0,0.0,910.45,1.2,0.0,0.0,80.05,4.86,14325.0,1915.34,-2772.6,7835.19,3129.2,3185.35,-1206.4,3391.77,2979.3,5740.51,4929.05,17397.76
HELLO,1196.15,3.57,0.0,0.0,910.0,1.9,0.0,0.0,82.6,9.44,12323.6,1208.34,-705.6,10662.92,2226.8,5084.42,-744.15,5096.65,-873.65,10245.27,-851.7,22004.61
HELLO,1197.3,2.67,0.0,0.0,911.85,6.04,0.0,0.0,82.7,9.39,13132.0,2016.92,5660.2,7956.6,1575.4,3371.38,-295.25,6709.12,-362.3,6674.06,-1550.4,17157.64
HELLO,1196.2,1.86,0.0,0.0,910.0,2.85,0.0,0.0,86.15,8.95,14886.0,2051.95,-2830.6,5595.66,5026.2,2437.06,-865.65,4581.51,-1278.1,5994.34,25.35,15117.74
HELLO,1198.2,2.23,0.0,0.0,910.3,7.61,0.0,0.0,98.15,7.24,13232.8,921.88,1821.0,10042.18,3167.6,3633.66,338.45,7067.31,1864.7,6289.39,-1445.1,22723.5
HELLO,1195.35,4.19,0.0,0.0,911.35,1.06,0.0,0.0,107.4,6.18,14202.6,1934.75,-1941.6,6614.91,4014.4,2865.05,-2685.85,5307.74,171.55,7422.73,3745.3,18073.82
HELLO,1195.45,4.01,0.0,0.0,911.25,6.4,0.0,0.0,177.2,65.23,13992.0,1739.1,-3768.6,6713.88,5820.4,3182.26,-411.05,5052.87,1166.6,7518.56,2032.25,15561.59
HELLO,1196.9,2.12,0.0,0.0,910.8,3.91,0.0,0.0,100.55,14.89,14166.4,1782.46,-471.8,7940.09,3721.0,2502.72,-564.0,10361.88,-1307.7,6655.71,-3863.25,19886.31
HELLO,1197.45,2.78,0.0,0.0,910.2,2.2,0.0,0.0,92.55,2.04,15179.2,558.98,-4284.8,1422.43,5699.0,470.1,-845.75,1696.13,62.95,1237.31,1926.15,4596.12
HELLO,1197.3,3.57,0.0,0.0,908.25,4.69,0.0,0.0,99.65,4.07,14658.4,1653.4,-3201.4,5989.4,3934.6,2520.32,-1131.9,1361.76,868.85,5555.8,2776.25,12857.7
HELLO,1195.9,6.62,0.0,0.0,908.65,3.99,0.0,0.0,113.25,12.68,13765.6,1819.23,-3938.0,8690.58,2423.4,3041.99,-1435.95,3494.46,-2607.5,8095.42,-5590.0,21302.7
HELLO,1194.6,6.18,0.0,0.0,906.8,4.85,0.0,0.0,106.3,5.84,14789.4,1112.05,920.0,7604.81,1755.8,1485.67,155.75,3515.64,814.85,3619.04,-172.7,16562.17
HELLO,1198.3,6.91,0.0,0.0,905.75,4.67,0.0,0.0,135.0,29.37,15213.6,934.2,-637.0,6700.95,1665.2,1935.88,-2028.85,5422.08,474.6,4578.75,6644.0,18153.35
HELLO,1201.5,5.71,0.0,0.0,909.6,4.62,0.0,0.0,134.9,13.07,15577.8,1747.72,-1118.4,5750.86,1763.0,912.97,-242.15,2429.89,185.65,2811.04,-2453.7,12095.91
HELLO,1195.55,13.66,0.0,0.0,910.8,9.63,0.0,0.0,114.3,11.73,15217.2,990.37,-2346.8,6345.49,2292.6,2683.0,-597.85,2642.23,29.45,5463.58,2587.9,16771.96
HELLO,1196.95,7.55,0.0,0.0,907.9,9.95,0.3,1.31,128.65,13.63,14452.4,1986.36,-2461.6,7389.2,2776.6,1705.12,-1029.6,3718.14,-427.55,4556.39,-4861.55,19696.68
HELLO,1194.85,6.12,0.0,0.0,909.8,7.86,0.0,0.0,133.85,11.03,14534.0,1726.46,322.4,7437.18,3798.8,1797.45,31.45,2904.03,685.8,4545.41,-672.7,18096.4
HELLO,1197.35,1.85,0.0,0.0,911.9,1.7,0.0,0.0,125.2,9.15,15395.8,1321.76,1659.4,6452.82,2435.8,1172.72,-1196.2,4504.1,-876.9,3041.85,3270.75,18596.14
HELLO,1197.7,1.52,0.0,0.0,911.35,1.8,0.0,0.0,108.65,5.76,15905.0,738.33,-564.2,4901.24,1743.0,980.88,-187.75,2500.69,209.35,2440.97,1273.6,13349.81
HELLO,1198.25,2.05,0.0,0.0,910.55,4.63,0.0,0.0,107.1,9.48,14700.2,1437.99,-1159.6,8180.66,2710.2,1613.83,-284.25,9368.62,514.85,4395.99,-2723.8,21255.95
HELLO,1196.6,3.81,0.0,0.0,911.75,0.7,0.0,0.0,106.4,6.65,14572.2,1621.5,-3629.2,7554.35,2556.8,1355.28,-1010.35,5036.63,-559.45,4452.8,2873.4,20591.67
HELLO,1197.2,2.99,0.0,0.0,909.5,4.4,0.0,0.0,105.25,6.52,15316.0,970.04,-2494.6,5478.96,3027.2,1612.46,-500.6,3335.77,-432.65,4242.65,-1489.0,15362.1
HELLO,1196.2,4.89,0.0,0.0,910.15,2.83,0.0,0.0,119.7,10.42,14722.0,1477.92,67.4,6892.95,3809.4,1984.35,-2196.5,6683.21,1863.75,5237.75,383.15,19702.81
HELLO,1195.8,3.41,0.0,0.0,911.9,0.83,0.0,0.0,117.0,7.56,14433.0,1889.41,-3692.8,6517.03,4179.6,1131.34,431.35,6200.83,-637.3,3131.57,-2868.15,17723.12
HELLO,1194.7,3.12,0.0,0.0,911.65,0.96,0.0,0.0,131.6,9.19,15183.6,1218.88,-324.0,5936.39,3040.4,1747.28,-1377.1,3913.05,346.75,3866.51,881.0,14682.3
HELLO,1195.45,5.53,0.0,0.0,912.0,0.84,0.0,0.0,143.95,16.34,14612.2,1990.51,-1226.2,8348.53,5559.0,2323.07,142.15,7942.67,1848.5,3229.78,2120.9,20061.35
HELLO,1196.9,6.21,0.0,0.0,912.6,3.76,0.0,0.0,112.55,15.39,14714.0,2984.47,-2889.6,6116.23,2318.0,6240.15,-1509.3,5501.96,-3414.6,8679.52,-671.25,19235.2
HELLO,1194.7,3.98,0.0,0.0,911.3,5.68,0.0,0.0,71.05,8.71,12870.2,3029.99,-5710.0,6766.0,4838.2,5321.22,1727.45,6216.69,3890.8,5137.59,4372.85,13556.1
HELLO,1197.35,3.13,0.0,0.0,912.5,4.69,0.0,0.0,121.15,13.79,12048.4,1879.95,-2956.4,8695.54,6052.2,5310.82,-1141.25,7628.97,-5229.95,6424.98,-6007.65,18812.25
HELLO,1197.85,2.46,0.0,0.0,912.8,5.33,0.0,0.0,135.5,15.78,13798.6,3022.22,5540.8,8956.35,-151.6,2108.75,-54.3,7896.12,405.05,4825.97,1413.35,22263.78
HELLO,1197.8,6.61,0.0,0.0,910.85,6.68,0.0,0.0,120.75,15.49,15676.4,1588.61,-2501.8,6688.02,-208.0,1404.28,-247.2,6397.91,-187.15,3947.48,2720.75,17842.87
HELLO,1198.75,3.86,0.0,0.0,912.75,6.5,0.0,0.0,90.35,11.12,15762.6,1313.95,-1375.6,6768.0,-362.8,1381.69,-371.35,5529.27,1122.1,2564.2,-1728.35,18264.13
HELLO,1197.9,3.79,0.0,0.0,911.4,0.92,0.0,0.0,88.55,6.53,15968.8,1049.27,-2358.8,5433.34,2074.4,1629.59,495.9,4713.2,1491.1,3408.1,738.65,17029.94
HELLO,1199.45,2.62,0.0,0.0,910.9,2.81,0.0,0.0,94.35,2.01,16663.2,932.45,-47.8,1263.13,3449.6,1105.14,-541.3,2251.58,-174.8,2032.11,-665.3,2455.27
HELLO,1199.05,1.24,0.0,0.0,911.65,0.85,0.0,0.0,94.3,9.36,16024.2,1700.48,3.0,5653.41,2370.0,1337.46,-86.8,5517.51,193.4,2358.9,-846.85,15844.48
HELLO,1199.7,0.78,0.0,0.0,913.35,4.09,4.3,11.2,216.3,95.59,15973.2,745.86,1418.4,937.43,4534.4,1234.2,-156.15,1400.78,1479.0,1958.17,174.8,1638.71
HELLO,1198.85,1.56,8.0,12.33,912.45,2.94,40.7,8.57,496.35,29.55,14962.2,1037.6,3094.4,3649.11,5701.0,1745.29,-690.65,8891.04,-955.75,5157.69,299.0,10278.46
HELLO,1194.15,3.71,9.8,19.6,910.7,2.41,45.85,15.46,502.25,53.66,15895.4,817.78,2396.4,5105.85,2850.8,965.05,757.2,8292.24,451.85,1888.59,-670.0,13018.92
HELLO,1191.8,6.25,136.7,41.29,911.05,8.06,54.6,8.41,602.85,13.75,16033.0,912.08,946.2,3218.44,4352.4,1496.71,-247.25,3333.85,-333.9,2231.17,1428.2,4716.84
HELLO,1189.8,6.19,144.65,16.45,909.95,3.54,52.65,10.64,601.05,7.65,16476.8,288.35,505.0,385.36,2653.8,451.03,-388.9,544.49,365.9,617.77,1.4,687.81
HELLO,1192.6,2.44,126.6,9.23,913.6,7.45,49.0,10.63,589.9,3.39,16519.4,854.87,-289.6,3661.6,1133.2,1128.29,-938.6,4318.53,-845.55,1715.69,147.3,8058.39
HELLO,1190.95,5.49,125.5,16.22,913.75,6.83,51.35,13.71,593.55,4.87,16524.0,762.55,-546.6,2539.0,1632.0,1441.99,560.45,4245.02,1329.5,1912.73,1043.45,7227.35
HELLO,1193.4,3.48,29.65,45.49,912.1,10.0,56.35,15.42,583.65,5.23,16084.8,898.3,-2157.2,3462.81,2606.2,1053.56,-1215.35,5284.53,260.55,2609.3,-152.65,9270.5
HELLO,1194.2,2.01,0.0,0.0,913.15,10.36,73.6,11.01,567.6,5.55,16219.2,786.8,-701.2,4402.96,1892.6,1617.98,-262.95,4785.75,661.8,3695.06,1238.2,12238.96
HELLO,1195.8,3.68,4.95,21.58,911.5,6.84,60.0,7.73,552.75,8.75,16049.6,478.72,-2457.0,3813.29,2345.8,1332.66,-1017.5,4835.13,-291.5,3415.7,-771.15,10720.44
HELLO,1194.9,1.81,4.55,19.83,910.5,3.01,65.75,8.12,554.6,3.84,16270.4,599.66,-534.0,2894.99,2639.0,1548.83,2479.7,4627.91,844.55,2968.23,-243.6,8958.91
HELLO,1194.4,1.83,0.0,0.0,911.8,3.03,32.25,15.94,514.0,24.19,15825.4,814.58,-609.6,5779.95,1757.6,1519.36,-2903.35,10756.8,863.1,4220.77,1024.6,17192.96
HELLO,1197.45,1.96,0.0,0.0,908.7,9.96,2.95,4.87,477.5,15.3,14648.2,1477.79,-1820.8,8882.08,3364.2,2108.39,-165.95,9216.87,-812.2,4395.49,-2885.55,22159.47
HELLO,1197.35,4.92,76.7,105.0,915.9,5.31,45.85,14.03,561.9,24.74,16066.2,1933.7,-2748.8,4944.27,2869.2,1794.8,1687.7,5003.87,-413.6,3169.7,-1102.8,12536.76
HELLO,1196.5,3.61,0.0,0.0,913.45,7.65,24.95,17.47,483.6,39.09,14969.6,1760.46,-215.0,7448.04,3126.8,3526.64,-4359.45,9781.66,1440.75,7836.86,1399.75,19594.29
HELLO,1198.05,1.56,0.0,0.0,913.5,7.26,0.0,0.0,387.1,15.66,15200.8,978.36,175.6,6231.67,2239.6,2146.31,190.75,10770.41,-518.25,5744.47,-561.3,22132.94
HELLO,1197.85,0.79,0.0,0.0,912.2,1.66,0.0,0.0,393.6,34.81,15483.4,919.6,-3226.8,6333.79,2336.0,2340.39,-1223.35,5624.84,-545.6,5789.62,1036.8,18808.32
HELLO,1198.1,1.79,0.0,0.0,912.05,0.22,15.7,6.48,467.0,19.34,16069.8,654.64,-2518.6,4787.17,1536.4,926.3,173.1,7877.52,123.6,3479.58,-1329.4,15989.13
HELLO,1198.35,1.28,0.0,0.0,912.95,5.22,10.0,5.57,440.2,9.45,16070.2,672.31,-1858.8,4812.81,933.6,1267.2,-340.45,7220.01,-241.55,3455.61,-1314.35,14559.22
HELLO,1198.7,1.35,0.0,0.0,911.7,1.35,10.25,5.14,447.45,12.99,15734.8,881.24,-1447.6,5267.44,2324.6,718.6,-484.4,7308.77,1069.7,2850.28,226.7,16175.57
HELLO,1198.0,1.1,0.0,0.0,911.8,0.6,5.9,6.64,454.8,10.81,15627.8,1031.61,-590.6,6147.75,2512.6,750.09,-763.1,8252.81,165.3,2616.11,931.2,17457.98
HELLO,1197.3,1.38,0.0,0.0,911.75,0.43,0.15,0.65,456.2,6.58,15599.2,765.62,-2325.2,5491.13,3320.2,953.07,776.35,7320.49,9.85,2860.0,-1715.8,14323.6
HELLO,1197.75,1.13,0.0,0.0,912.0,0.32,0.15,0.48,437.05,19.97,13767.8,1815.54,-3474.4,7772.62,4317.2,2687.15,1548.65,9123.44,1593.25,5245.63,2014.7,20412.36
HELLO,1197.45,1.53,0.0,0.0,911.25,4.72,6.3,12.74,446.5,40.53,11207.8,2442.62,-8613.6,7538.65,8119.2,3295.03,-2239.8,9045.6,-2551.05,9564.9,-3295.3,23355.46
HELLO,1199.4,4.47,0.0,0.0,911.9,0.7,22.75,12.43,488.85,37.96,14912.2,2934.11,4236.6,7556.1,231.6,2588.4,-1706.25,10522.75,283.05,5357.76,6370.35,21190.34
HELLO,1197.85,2.01,0.0,0.0,910.45,2.78,1.15,3.41,411.35,15.8,12650.2,1992.86,-3649.0,10118.82,1515.4,3405.3,-284.55,8261.55,200.7,8744.67,-2581.0,26408.36
HELLO,1197.4,2.5,0.0,0.0,911.4,1.69,0.55,2.4,387.8,22.99,15029.0,2203.48,-2574.2,9856.51,1495.8,2282.37,340.65,10554.3,-522.85,5302.2,-2134.8,22427.21
HELLO,1197.9,2.39,0.0,0.0,910.1,3.08,0.0,0.0,291.6,26.04,15868.4,926.89,-592.4,4074.45,4139.6,1790.17,631.55,7779.75,500.3,5037.45,-1762.35,11418.6
HELLO,1198.65,1.49,0.0,0.0,911.95,0.38,11.1,17.18,367.25,87.18,15619.2,697.49,-2306.8,6705.96,1389.6,1702.97,-1206.45,8356.9,347.25,5044.78,-71.65,20880.45
HELLO,1195.45,6.79,0.0,0.0,913.7,5.34,58.6,9.21,565.7,10.1,15685.6,781.58,-379.4,4894.52,4236.6,1749.8,68.5,5950.11,398.3,3947.54,-358.45,12190.2
HELLO,1192.2,5.32,0.0,0.0,912.35,4.15,56.0,11.99,534.3,15.21,15477.0,780.3,-1774.8,5273.8,4700.2,1239.45,-1122.8,7148.75,1362.8,3128.28,1778.75,14236.24
HELLO,1193.65,1.49,0.0,0.0,911.7,1.38,37.5,11.77,498.95,10.73,15439.4,661.39,-1798.0,878.21,5433.8,1047.53,101.3,1474.82,277.2,1180.27,-653.85,2046.71
HELLO,1194.15,2.15,0.0,0.0,911.85,0.36,14.8,7.41,456.75,20.05,15844.4,1634.37,-311.4,5502.23,2511.8,2411.1,774.5,8420.64,-1580.85,6542.61,-2702.25,18994.46
HELLO,1196.3,1.85,0.0,0.0,911.55,1.4,2.6,4.79,432.2,18.43,16069.0,1475.63,2530.2,4887.59,2649.6,1813.91,-2192.45,7220.5,601.9,4995.42,1827.7,16274.92
HELLO,1195.8,2.73,0.0,0.0,911.1,1.22,0.0,0.0,382.4,23.45,15590.6,1308.82,-1453.8,4662.6,3701.2,2038.53,-562.85,7551.13,911.45,5416.9,2073.9,16409.84
HELLO,1197.2,2.82,0.0,0.0,910.7,1.68,0.05,0.22,395.5,17.03,16183.4,1317.62,-500.6,3852.13,3828.6,1186.08,-888.85,5146.79,-392.8,3226.07,3.05,12375.02
HELLO,1195.8,3.84,0.0,0.0,912.15,0.57,27.3,22.85,475.3,82.69,15050.4,1393.04,-3631.4,6415.41,2438.2,1842.65,81.45,8030.42,-976.55,4978.41,-2023.75,19395.53
HELLO,1196.35,1.98,0.0,0.0,911.8,0.51,51.25,9.06,581.1,10.37,15978.0,853.04,-1561.4,5468.17,2641.0,1713.61,-927.3,6243.37,319.9,4119.74,981.15,13122.9
HELLO,1196.85,2.26,0.0,0.0,911.65,1.74,38.85,18.07,548.5,19.44,15439.0,844.43,-2470.2,5489.51,3701.0,1511.95,-706.3,8905.02,1239.4,6013.93,1208.4,18421.14
HELLO,1197.65,2.83,0.0,0.0,910.15,6.34,12.8,4.2,464.2,22.35,15666.6,1136.71,-1910.0,4382.81,3856.4,1257.2,-1320.8,7741.98,275.8,4143.26,542.55,12593.96
HELLO,1198.0,2.39,0.0,0.0,910.6,1.66,3.85,7.94,372.4,32.45,15683.8,1366.94,-1180.4,3204.09,4586.4,1381.34,545.35,5204.71,-27.65,3534.58,-2884.1,8929.84
HELLO,1199.0,1.1,0.0,0.0,910.35,1.28,0.0,0.0,297.9,12.62,15560.8,599.68,-3380.4,1616.83,5118.6,731.51,-1266.9,2081.39,193.05,1619.52,1494.55,2290.2
HELLO,1199.3,0.64,0.0,0.0,910.6,0.97,0.0,0.0,286.0,1.7,15745.8,372.74,-3950.8,968.17,4481.4,442.83,514.9,3114.86,-194.25,954.83,-1745.35,4557.75
HELLO,1197.4,3.32,0.0,0.0,911.4,1.11,6.9,17.25,354.75,66.01,15955.6,914.76,-588.8,5003.21,3098.6,1356.91,540.3,7492.69,344.45,3256.16,121.6,15848.6
HELLO,1188.05,2.42,57.7,80.87,912.15,2.78,54.95,10.76,586.15,9.25,15662.8,884.21,-633.6,5288.32,5189.8,2005.82,-387.95,7625.02,1672.0,3522.43,110.05,12885.82
HELLO,1192.8,1.57,0.0,0.0,911.55,0.74,44.95,10.67,554.55,6.22,15134.4,784.14,-1127.8,4772.47,6107.8,1156.94,-228.85,7697.01,-428.1,2939.67,-301.7,11335.96
HELLO,1194.6,1.07,0.0,0.0,911.0,2.28,31.65,5.6,524.8,12.84,15236.2,981.33,2119.0,3876.9,4948.8,1493.79,241.75,9677.37,1045.8,2876.05,732.5,11670.77
HELLO,1195.45,1.56,0.0,0.0,911.3,0.78,17.05,14.18,488.2,24.67,14834.2,1495.62,-771.4,5854.1,6667.0,1772.29,-2972.1,11739.69,399.25,3799.88,829.95,17813.92
